Subject,Condition,Profi_CAT,CorrectAnswer,Trial,word1,word2,word3,word4,word4.ACC,word4.CRESP,word4.RESP,word4.RT,Age,TotalSocialSkill,TotalAttentionToDetail,TotalAttentionSwitching,TotalCommunication,Totalimagination,TotalSystemizing,TotalExtraversion,TotalAgreeableness,TotalConscientiousness,TotalNeuroticism,TotalOpeness,Proficiency,criticalWord,Category,item,item_check,accuracy
1,T1,1,0,2,Some ,butterflies,are,insects,0,m,TRUE,1202,22,4,5,9,4,4,74,20,36,32,39,31,low,butterflies,insects,6,butterflies_6_6,1
1,T2,1,1,3,Some ,birds,are,eagles,0,c,FALSE,1175,22,4,5,9,4,4,74,20,36,32,39,31,low,eagles,birds,17,eagles_17_17,0
1,T3,1,0,4,Some ,pineapples,are,flowers,1,m,FALSE,1036,22,4,5,9,4,4,74,20,36,32,39,31,low,pineapples,flowers,40,pineapples_40_40,1
1,T4,1,1,5,All,snakes,are,reptiles,1,c,TRUE,1232,22,4,5,9,4,4,74,20,36,32,39,31,low,snakes,reptiles,48,snakes_48_48,1
1,T5,1,0,6,All,fish,are,sharks,0,m,TRUE,2609,22,4,5,9,4,4,74,20,36,32,39,31,low,sharks,fish,47,sharks_47_47,0
1,T6,1,0,7,All,lavender,are,fruits,1,m,FALSE,727,22,4,5,9,4,4,74,20,36,32,39,31,low,lavender,fruits,28,lavender_28_28,1
1,T1,1,0,8,Some ,mosquitoes,are,insects,0,m,TRUE,850,22,4,5,9,4,4,74,20,36,32,39,31,low,mosquitoes,insects,32,mosquitoes_32_32,1
1,T2,1,1,9,Some ,birds,are,owls,1,c,TRUE,1536,22,4,5,9,4,4,74,20,36,32,39,31,low,owls,birds,35,owls_35_35,1
1,T3,1,0,10,Some ,strawberries,are,flowers,1,m,FALSE,678,22,4,5,9,4,4,74,20,36,32,39,31,low,strawberries,flowers,51,strawberries_51_51,1
1,T4,1,1,11,All,dinosaurs,are,reptiles,1,c,TRUE,2321,22,4,5,9,4,4,74,20,36,32,39,31,low,dinosaurs,reptiles,13,dinosaurs_13_13,1
1,T5,1,0,12,All,fish,are,salmons,0,m,TRUE,1207,22,4,5,9,4,4,74,20,36,32,39,31,low,salmons,fish,45,salmons_45_45,0
1,T6,1,0,13,All,lilies,are,fruits,1,m,FALSE,761,22,4,5,9,4,4,74,20,36,32,39,31,low,lilies,fruits,29,lilies_29_29,1
1,T1,1,0,14,Some ,cockroaches,are,insects,0,m,TRUE,762,22,4,5,9,4,4,74,20,36,32,39,31,low,cockroaches,insects,9,cockroaches_9_9,1
1,T2,1,1,15,Some ,birds,are,penguins,0,c,FALSE,2499,22,4,5,9,4,4,74,20,36,32,39,31,low,penguins,birds,39,penguins_39_39,0
1,T3,1,0,16,Some ,watermelons,are,flowers,1,m,FALSE,864,22,4,5,9,4,4,74,20,36,32,39,31,low,watermelons,flowers,55,watermelons_55_55,1
1,T4,1,1,17,All,chameleons,are,reptiles,1,c,TRUE,1062,22,4,5,9,4,4,74,20,36,32,39,31,low,chameleons,reptiles,8,chameleons_8_8,1
1,T5,1,0,18,All,fish,are,anchovies,0,m,TRUE,1446,22,4,5,9,4,4,74,20,36,32,39,31,low,anchovies,fish,2,anchovies_2_2,0
1,T6,1,0,19,All,hibiscuses,are,fruits,1,m,FALSE,575,22,4,5,9,4,4,74,20,36,32,39,31,low,hibiscuses,fruits,24,hibiscuses_24_24,1
1,T1,1,0,21,Some ,grasshoppers,are,insects,0,m,TRUE,855,22,4,5,9,4,4,74,20,36,32,39,31,low,grasshoppers,insects,22,grasshoppers_22_22,1
1,T2,1,1,22,Some ,birds,are,parrots,1,c,TRUE,833,22,4,5,9,4,4,74,20,36,32,39,31,low,parrots,birds,37,parrots_37_37,1
1,T3,1,0,23,Some ,papayas,are,flowers,1,m,FALSE,701,22,4,5,9,4,4,74,20,36,32,39,31,low,papayas,flowers,36,papayas_36_36,1
1,T4,1,1,24,All,tortoises,are,reptiles,1,c,TRUE,934,22,4,5,9,4,4,74,20,36,32,39,31,low,tortoises,reptiles,52,tortoises_52_52,1
1,T5,1,0,25,All,fish,are,eels,0,m,TRUE,924,22,4,5,9,4,4,74,20,36,32,39,31,low,eels,fish,18,eels_18_18,0
1,T6,1,0,26,All,roses,are,fruits,1,m,FALSE,851,22,4,5,9,4,4,74,20,36,32,39,31,low,roses,fruits,44,roses_44_44,1
1,T1,1,0,27,Some ,ants,are,insects,0,m,TRUE,1567,22,4,5,9,4,4,74,20,36,32,39,31,low,ants,insects,3,ants_3_3,1
1,T2,1,1,28,Some ,birds,are,sparrows,1,c,TRUE,741,22,4,5,9,4,4,74,20,36,32,39,31,low,sparrows,birds,49,sparrows_49_49,1
1,T3,1,0,29,Some ,grapes,are,flowers,0,m,TRUE,622,22,4,5,9,4,4,74,20,36,32,39,31,low,grapes,flowers,21,grapes_21_21,0
1,T4,1,1,30,All,lizards,are,reptiles,1,c,TRUE,2076,22,4,5,9,4,4,74,20,36,32,39,31,low,lizards,reptiles,30,lizards_30_30,1
1,T5,1,0,31,All,fish,are,guppies,0,m,TRUE,1636,22,4,5,9,4,4,74,20,36,32,39,31,low,guppies,fish,23,guppies_23_23,0
1,T6,1,0,32,All,orchids,are,fruits,1,m,FALSE,973,22,4,5,9,4,4,74,20,36,32,39,31,low,orchids,fruits,33,orchids_33_33,1
1,T1,1,0,33,Some ,caterpillars,are,insects,0,m,TRUE,2257,22,4,5,9,4,4,74,20,36,32,39,31,low,caterpillars,insects,7,caterpillars_7_7,1
1,T2,1,1,34,Some ,birds,are,ostriches,1,c,TRUE,2826,22,4,5,9,4,4,74,20,36,32,39,31,low,ostriches,birds,34,ostriches_34_34,1
1,T3,1,0,35,Some ,durians,are,flowers,1,m,FALSE,723,22,4,5,9,4,4,74,20,36,32,39,31,low,durians,flowers,16,durians_16_16,1
1,T4,1,1,36,All,crocodiles,are,reptiles,1,c,TRUE,1017,22,4,5,9,4,4,74,20,36,32,39,31,low,crocodiles,reptiles,11,crocodiles_11_11,1
1,T5,1,0,37,All,fish,are,piranha ,0,m,TRUE,1109,22,4,5,9,4,4,74,20,36,32,39,31,low,piranha ,fish,41,piranha _41_41,0
1,T6,1,0,38,All,jasmines,are,fruits,1,m,FALSE,2796,22,4,5,9,4,4,74,20,36,32,39,31,low,jasmines,fruits,26,jasmines_26_26,1
1,T1,1,0,40,Some ,ladybugs,are,insects,0,m,TRUE,454,22,4,5,9,4,4,74,20,36,32,39,31,low,ladybugs,insects,27,ladybugs_27_27,1
1,T2,1,1,41,Some ,birds,are,ducks,1,c,TRUE,976,22,4,5,9,4,4,74,20,36,32,39,31,low,ducks,birds,15,ducks_15_15,1
1,T3,1,0,42,Some ,coconuts,are,flowers,1,m,FALSE,778,22,4,5,9,4,4,74,20,36,32,39,31,low,coconuts,flowers,10,coconuts_10_10,1
1,T4,1,1,43,All,iguanas,are,reptiles,1,c,TRUE,531,22,4,5,9,4,4,74,20,36,32,39,31,low,iguanas,reptiles,25,iguanas_25_25,1
1,T5,1,0,44,All,fish,are,stingrays,0,m,TRUE,1074,22,4,5,9,4,4,74,20,36,32,39,31,low,stingrays,fish,50,stingrays_50_50,0
1,T6,1,0,45,All,tulips,are,fruits,1,m,FALSE,814,22,4,5,9,4,4,74,20,36,32,39,31,low,tulips,fruits,53,tulips_53_53,1
1,T1,1,0,46,Some ,bees,are,insects,0,m,TRUE,1206,22,4,5,9,4,4,74,20,36,32,39,31,low,bees,insects,5,bees_5_5,1
1,T2,1,1,47,Some ,birds,are,flamingoes,1,c,TRUE,1093,22,4,5,9,4,4,74,20,36,32,39,31,low,flamingoes,birds,19,flamingoes_19_19,1
1,T3,1,0,48,Some ,bananas,are,flowers,1,m,FALSE,771,22,4,5,9,4,4,74,20,36,32,39,31,low,bananas,flowers,4,bananas_4_4,1
1,T4,1,1,49,All,frogs,are,reptiles,1,c,TRUE,1349,22,4,5,9,4,4,74,20,36,32,39,31,low,frogs,reptiles,20,frogs_20_20,1
1,T5,1,0,50,All,fish,are,tuna,0,m,TRUE,1408,22,4,5,9,4,4,74,20,36,32,39,31,low,tuna,fish,54,tuna_54_54,0
1,T6,1,0,51,All,daisies,are,fruits,1,m,FALSE,789,22,4,5,9,4,4,74,20,36,32,39,31,low,daisies,fruits,12,daisies_12_12,1
1,T1,1,0,52,Some ,dragonflies,are,insects,0,m,TRUE,480,22,4,5,9,4,4,74,20,36,32,39,31,low,dragonflies,insects,14,dragonflies_14_14,1
1,T2,1,1,53,Some ,birds,are,peacocks,1,c,TRUE,1369,22,4,5,9,4,4,74,20,36,32,39,31,low,peacocks,birds,38,peacocks_38_38,1
1,T3,1,0,54,Some ,mangos,are,flowers,1,m,FALSE,4688,22,4,5,9,4,4,74,20,36,32,39,31,low,mangos,flowers,31,mangos_31_31,1
1,T4,1,1,55,All,alligators,are,reptiles,1,c,TRUE,951,22,4,5,9,4,4,74,20,36,32,39,31,low,alligators,reptiles,1,alligators_1_1,1
1,T5,1,0,56,All,fish,are,sardines,0,m,TRUE,887,22,4,5,9,4,4,74,20,36,32,39,31,low,sardines,fish,46,sardines_46_46,0
1,T6,1,0,57,All,rafflesias,are,fruits,1,m,FALSE,2618,22,4,5,9,4,4,74,20,36,32,39,31,low,rafflesias,fruits,43,rafflesias_43_43,1
2,T1,2,0,2,Some ,eagles,are,birds,0,m,TRUE,541,19,5,3,6,6,2,76,26,37,30,29,38,high,eagles,birds,17,eagles_17_17,1
2,T2,2,1,3,Some ,fruits,are,pineapples,1,c,TRUE,709,19,5,3,6,6,2,76,26,37,30,29,38,high,pineapples,fruits,40,pineapples_40_40,1
2,T3,2,0,4,Some ,snakes,are,insects,0,m,TRUE,1022,19,5,3,6,6,2,76,26,37,30,29,38,high,snakes,insects,48,snakes_48_48,0
2,T4,2,1,5,All,sharks,are,fish,1,c,TRUE,1136,19,5,3,6,6,2,76,26,37,30,29,38,high,sharks,fish,47,sharks_47_47,1
2,T5,2,0,6,All,flowers,are,lavender,1,m,FALSE,1054,19,5,3,6,6,2,76,26,37,30,29,38,high,lavender,flowers,28,lavender_28_28,1
2,T6,2,0,7,All,butterflies,are,reptiles,1,m,FALSE,735,19,5,3,6,6,2,76,26,37,30,29,38,high,butterflies,reptiles,6,butterflies_6_6,1
2,T1,2,0,8,Some ,owls,are,birds,0,m,TRUE,1155,19,5,3,6,6,2,76,26,37,30,29,38,high,owls,birds,35,owls_35_35,1
2,T2,2,1,9,Some ,fruits,are,strawberries,1,c,TRUE,1501,19,5,3,6,6,2,76,26,37,30,29,38,high,strawberries,fruits,51,strawberries_51_51,1
2,T3,2,0,10,Some ,dinosaurs,are,insects ,1,m,FALSE,636,19,5,3,6,6,2,76,26,37,30,29,38,high,dinosaurs,insects ,13,dinosaurs_13_13,1
2,T4,2,1,11,All,salmons,are,fish,1,c,TRUE,493,19,5,3,6,6,2,76,26,37,30,29,38,high,salmons,fish,45,salmons_45_45,1
2,T5,2,0,12,All,flowers,are,lilies,1,m,FALSE,1160,19,5,3,6,6,2,76,26,37,30,29,38,high,lilies,flowers,29,lilies_29_29,1
2,T6,2,0,13,All,mosquitoes,are,reptiles,1,m,FALSE,617,19,5,3,6,6,2,76,26,37,30,29,38,high,mosquitoes,reptiles,32,mosquitoes_32_32,1
2,T1,2,0,14,Some ,penguins,are,birds,0,m,TRUE,1276,19,5,3,6,6,2,76,26,37,30,29,38,high,penguins,birds,39,penguins_39_39,1
2,T2,2,1,15,Some ,fruits,are,watermelons,1,c,TRUE,1544,19,5,3,6,6,2,76,26,37,30,29,38,high,watermelons,fruits,55,watermelons_55_55,1
2,T3,2,0,16,Some ,chameleons,are,insects,1,m,FALSE,1078,19,5,3,6,6,2,76,26,37,30,29,38,high,chameleons,insects,8,chameleons_8_8,1
2,T4,2,1,17,All,anchovies,are,fish,1,c,TRUE,896,19,5,3,6,6,2,76,26,37,30,29,38,high,anchovies,fish,2,anchovies_2_2,1
2,T5,2,0,18,All,flowers,are,hibiscuses,1,m,FALSE,696,19,5,3,6,6,2,76,26,37,30,29,38,high,hibiscuses,flowers,24,hibiscuses_24_24,1
2,T6,2,0,19,All,cockroaches,are,reptiles,1,m,FALSE,753,19,5,3,6,6,2,76,26,37,30,29,38,high,cockroaches,reptiles,9,cockroaches_9_9,1
2,T1,2,0,21,Some ,parrots,are,birds,0,m,TRUE,1124,19,5,3,6,6,2,76,26,37,30,29,38,high,parrots,birds,37,parrots_37_37,1
2,T2,2,1,22,Some ,fruits,are,papayas,1,c,TRUE,1118,19,5,3,6,6,2,76,26,37,30,29,38,high,papayas,fruits,36,papayas_36_36,1
2,T3,2,0,23,Some ,tortoises,are,insects,1,m,FALSE,562,19,5,3,6,6,2,76,26,37,30,29,38,high,tortoises,insects,52,tortoises_52_52,1
2,T4,2,1,24,All,eels,are,fish,1,c,TRUE,644,19,5,3,6,6,2,76,26,37,30,29,38,high,eels,fish,18,eels_18_18,1
2,T5,2,0,25,All,flowers,are,roses,1,m,FALSE,1348,19,5,3,6,6,2,76,26,37,30,29,38,high,roses,flowers,44,roses_44_44,1
2,T6,2,0,26,All,grasshoppers,are,reptiles,1,m,FALSE,713,19,5,3,6,6,2,76,26,37,30,29,38,high,grasshoppers,reptiles,22,grasshoppers_22_22,1
2,T1,2,0,27,Some ,sparrows,are,birds,0,m,TRUE,571,19,5,3,6,6,2,76,26,37,30,29,38,high,sparrows,birds,49,sparrows_49_49,1
2,T2,2,1,28,Some ,fruits,are,grapes,1,c,TRUE,648,19,5,3,6,6,2,76,26,37,30,29,38,high,grapes,fruits,21,grapes_21_21,1
2,T3,2,0,29,Some ,lizards,are,insects,1,m,FALSE,590,19,5,3,6,6,2,76,26,37,30,29,38,high,lizards,insects,30,lizards_30_30,1
2,T4,2,1,30,All,guppies,are,fish,1,c,TRUE,446,19,5,3,6,6,2,76,26,37,30,29,38,high,guppies,fish,23,guppies_23_23,1
2,T5,2,0,31,All,flowers,are,orchids,1,m,FALSE,1076,19,5,3,6,6,2,76,26,37,30,29,38,high,orchids,flowers,33,orchids_33_33,1
2,T6,2,0,32,All,ants,are,reptiles,1,m,FALSE,679,19,5,3,6,6,2,76,26,37,30,29,38,high,ants,reptiles,3,ants_3_3,1
2,T1,2,0,33,Some ,ostriches,are,birds,0,m,TRUE,407,19,5,3,6,6,2,76,26,37,30,29,38,high,ostriches,birds,34,ostriches_34_34,1
2,T2,2,1,34,Some ,fruits,are,durians,1,c,TRUE,669,19,5,3,6,6,2,76,26,37,30,29,38,high,durians,fruits,16,durians_16_16,1
2,T3,2,0,35,Some ,crocodiles,are,insects,1,m,FALSE,597,19,5,3,6,6,2,76,26,37,30,29,38,high,crocodiles,insects,11,crocodiles_11_11,1
2,T4,2,1,36,All,piranha ,are,fish,1,c,TRUE,604,19,5,3,6,6,2,76,26,37,30,29,38,high,piranha ,fish,41,piranha _41_41,1
2,T5,2,0,37,All,flowers,are,jasmines,0,m,TRUE,796,19,5,3,6,6,2,76,26,37,30,29,38,high,jasmines,flowers,26,jasmines_26_26,0
2,T6,2,0,38,All,caterpillars,are,reptiles,1,m,FALSE,722,19,5,3,6,6,2,76,26,37,30,29,38,high,caterpillars,reptiles,7,caterpillars_7_7,1
2,T1,2,0,40,Some ,ducks,are,birds,0,m,TRUE,483,19,5,3,6,6,2,76,26,37,30,29,38,high,ducks,birds,15,ducks_15_15,1
2,T2,2,1,41,Some ,fruits,are,coconuts,1,c,TRUE,567,19,5,3,6,6,2,76,26,37,30,29,38,high,coconuts,fruits,10,coconuts_10_10,1
2,T3,2,0,42,Some ,iguanas,are,insects,1,m,FALSE,587,19,5,3,6,6,2,76,26,37,30,29,38,high,iguanas,insects,25,iguanas_25_25,1
2,T4,2,1,43,All,stingrays,are,fish,1,c,TRUE,430,19,5,3,6,6,2,76,26,37,30,29,38,high,stingrays,fish,50,stingrays_50_50,1
2,T5,2,0,44,All,flowers,are,tulips,1,m,FALSE,1005,19,5,3,6,6,2,76,26,37,30,29,38,high,tulips,flowers,53,tulips_53_53,1
2,T6,2,0,45,All,ladybugs,are,reptiles,1,m,FALSE,551,19,5,3,6,6,2,76,26,37,30,29,38,high,ladybugs,reptiles,27,ladybugs_27_27,1
2,T1,2,0,46,Some ,flamingoes,are,birds,0,m,TRUE,781,19,5,3,6,6,2,76,26,37,30,29,38,high,flamingoes,birds,19,flamingoes_19_19,1
2,T2,2,1,47,Some ,fruits,are,bananas,1,c,TRUE,1612,19,5,3,6,6,2,76,26,37,30,29,38,high,bananas,fruits,4,bananas_4_4,1
2,T3,2,0,48,Some ,frogs,are,insects,1,m,FALSE,564,19,5,3,6,6,2,76,26,37,30,29,38,high,frogs,insects,20,frogs_20_20,1
2,T4,2,1,49,All,tuna,are,fish,1,c,TRUE,624,19,5,3,6,6,2,76,26,37,30,29,38,high,tuna,fish,54,tuna_54_54,1
2,T5,2,0,50,All,flowers,are,daisies,1,m,FALSE,546,19,5,3,6,6,2,76,26,37,30,29,38,high,daisies,flowers,12,daisies_12_12,1
2,T6,2,0,51,All,bees,are,reptiles,1,m,FALSE,467,19,5,3,6,6,2,76,26,37,30,29,38,high,bees,reptiles,5,bees_5_5,1
2,T1,2,0,52,Some ,peacocks,are,birds,0,m,TRUE,466,19,5,3,6,6,2,76,26,37,30,29,38,high,peacocks,birds,38,peacocks_38_38,1
2,T2,2,1,53,Some ,fruits,are,mangos,1,c,TRUE,967,19,5,3,6,6,2,76,26,37,30,29,38,high,mangos,fruits,31,mangos_31_31,1
2,T3,2,0,54,Some ,alligators,are,insects,1,m,FALSE,567,19,5,3,6,6,2,76,26,37,30,29,38,high,alligators,insects,1,alligators_1_1,1
2,T4,2,1,55,All,sardines,are,fish,1,c,TRUE,473,19,5,3,6,6,2,76,26,37,30,29,38,high,sardines,fish,46,sardines_46_46,1
2,T5,2,0,56,All,flowers,are,rafflesias,1,m,FALSE,988,19,5,3,6,6,2,76,26,37,30,29,38,high,rafflesias,flowers,43,rafflesias_43_43,1
2,T6,2,0,57,All,dragonflies,are,reptiles,1,m,FALSE,624,19,5,3,6,6,2,76,26,37,30,29,38,high,dragonflies,reptiles,14,dragonflies_14_14,1
3,T1,1,0,2,Some ,pineapples,are,fruits,0,m,TRUE,726,20,2,8,3,4,4,88,30,21,27,28,39,low,pineapples,fruits,40,pineapples_40_40,1
3,T2,1,1,3,Some ,reptiles,are,snakes,1,c,TRUE,2076,20,2,8,3,4,4,88,30,21,27,28,39,low,snakes,reptiles,48,snakes_48_48,1
3,T3,1,0,4,Some ,sharks,are,birds,1,m,FALSE,2054,20,2,8,3,4,4,88,30,21,27,28,39,low,sharks,birds,47,sharks_47_47,1
3,T4,1,1,5,All,lavender,are,flowers,1,c,TRUE,618,20,2,8,3,4,4,88,30,21,27,28,39,low,lavender,flowers,28,lavender_28_28,1
3,T5,1,0,6,All,insects,are,butterflies,1,m,FALSE,1767,20,2,8,3,4,4,88,30,21,27,28,39,low,butterflies,insects,6,butterflies_6_6,1
3,T6,1,0,7,All,eagles,are,fish,1,m,FALSE,1254,20,2,8,3,4,4,88,30,21,27,28,39,low,eagles,fish,17,eagles_17_17,1
3,T1,1,0,8,Some ,strawberries,are,fruits,1,m,FALSE,2651,20,2,8,3,4,4,88,30,21,27,28,39,low,strawberries,fruits,51,strawberries_51_51,0
3,T2,1,1,9,Some ,reptiles,are,dinosaurs,0,c,FALSE,3562,20,2,8,3,4,4,88,30,21,27,28,39,low,dinosaurs,reptiles,13,dinosaurs_13_13,0
3,T3,1,0,10,Some ,salmons,are,birds,1,m,FALSE,925,20,2,8,3,4,4,88,30,21,27,28,39,low,salmons,birds,45,salmons_45_45,1
3,T4,1,1,11,All,lilies,are,flowers,1,c,TRUE,519,20,2,8,3,4,4,88,30,21,27,28,39,low,lilies,flowers,29,lilies_29_29,1
3,T5,1,0,12,All,insects,are,mosquitoes,0,m,TRUE,2933,20,2,8,3,4,4,88,30,21,27,28,39,low,mosquitoes,insects,32,mosquitoes_32_32,0
3,T6,1,0,13,All,owls,are,fish,1,m,FALSE,1578,20,2,8,3,4,4,88,30,21,27,28,39,low,owls,fish,35,owls_35_35,1
3,T1,1,0,14,Some ,watermelons,are,fruits,0,m,TRUE,2562,20,2,8,3,4,4,88,30,21,27,28,39,low,watermelons,fruits,55,watermelons_55_55,1
3,T2,1,1,15,Some ,reptiles,are,chameleons,1,c,TRUE,994,20,2,8,3,4,4,88,30,21,27,28,39,low,chameleons,reptiles,8,chameleons_8_8,1
3,T3,1,0,16,Some ,anchovies,are,birds,1,m,FALSE,990,20,2,8,3,4,4,88,30,21,27,28,39,low,anchovies,birds,2,anchovies_2_2,1
3,T4,1,1,17,All,hibiscuses,are,flowers,1,c,TRUE,511,20,2,8,3,4,4,88,30,21,27,28,39,low,hibiscuses,flowers,24,hibiscuses_24_24,1
3,T5,1,0,18,All,insects,are,cockroaches,0,m,TRUE,1633,20,2,8,3,4,4,88,30,21,27,28,39,low,cockroaches,insects,9,cockroaches_9_9,0
3,T6,1,0,19,All,penguins,are,fish,1,m,FALSE,1894,20,2,8,3,4,4,88,30,21,27,28,39,low,penguins,fish,39,penguins_39_39,1
3,T1,1,0,21,Some ,papayas,are,fruits,0,m,TRUE,484,20,2,8,3,4,4,88,30,21,27,28,39,low,papayas,fruits,36,papayas_36_36,1
3,T2,1,1,22,Some ,reptiles,are,tortoises,0,c,FALSE,722,20,2,8,3,4,4,88,30,21,27,28,39,low,tortoises,reptiles,52,tortoises_52_52,0
3,T3,1,0,23,Some ,eels,are,birds,1,m,FALSE,1052,20,2,8,3,4,4,88,30,21,27,28,39,low,eels,birds,18,eels_18_18,1
3,T4,1,1,24,All,roses,are,flowers,1,c,TRUE,428,20,2,8,3,4,4,88,30,21,27,28,39,low,roses,flowers,44,roses_44_44,1
3,T5,1,0,25,All,insects,are,grasshoppers,0,m,TRUE,1901,20,2,8,3,4,4,88,30,21,27,28,39,low,grasshoppers,insects,22,grasshoppers_22_22,0
3,T6,1,0,26,All,parrots,are,fish,1,m,FALSE,2119,20,2,8,3,4,4,88,30,21,27,28,39,low,parrots,fish,37,parrots_37_37,1
3,T1,1,0,27,Some ,grapes,are,fruits,0,m,TRUE,892,20,2,8,3,4,4,88,30,21,27,28,39,low,grapes,fruits,21,grapes_21_21,1
3,T2,1,1,28,Some ,reptiles,are,lizards,0,c,FALSE,2105,20,2,8,3,4,4,88,30,21,27,28,39,low,lizards,reptiles,30,lizards_30_30,0
3,T3,1,0,29,Some ,guppies,are,birds,1,m,FALSE,4358,20,2,8,3,4,4,88,30,21,27,28,39,low,guppies,birds,23,guppies_23_23,1
3,T4,1,1,30,All,orchids,are,flowers,1,c,TRUE,409,20,2,8,3,4,4,88,30,21,27,28,39,low,orchids,flowers,33,orchids_33_33,1
3,T5,1,0,31,All,insects,are,ants,1,m,FALSE,936,20,2,8,3,4,4,88,30,21,27,28,39,low,ants,insects,3,ants_3_3,1
3,T6,1,0,32,All,sparrows,are,fish,1,m,FALSE,990,20,2,8,3,4,4,88,30,21,27,28,39,low,sparrows,fish,49,sparrows_49_49,1
3,T1,1,0,33,Some ,durians,are,fruits,1,m,FALSE,2299,20,2,8,3,4,4,88,30,21,27,28,39,low,durians,fruits,16,durians_16_16,0
3,T2,1,1,34,Some ,reptiles,are,crocodiles,1,c,TRUE,1190,20,2,8,3,4,4,88,30,21,27,28,39,low,crocodiles,reptiles,11,crocodiles_11_11,1
3,T3,1,0,35,Some ,piranha,are,birds,1,m,FALSE,654,20,2,8,3,4,4,88,30,21,27,28,39,low,piranha,birds,41,piranha_41_41,1
3,T4,1,1,36,All,jasmines,are,flowers,1,c,TRUE,386,20,2,8,3,4,4,88,30,21,27,28,39,low,jasmines,flowers,26,jasmines_26_26,1
3,T5,1,0,37,All,insects,are,caterpillars,0,m,TRUE,1390,20,2,8,3,4,4,88,30,21,27,28,39,low,caterpillars,insects,7,caterpillars_7_7,0
3,T6,1,0,38,All,ostriches,are,fish,1,m,FALSE,705,20,2,8,3,4,4,88,30,21,27,28,39,low,ostriches,fish,34,ostriches_34_34,1
3,T1,1,0,40,Some ,coconuts,are,fruits,0,m,TRUE,982,20,2,8,3,4,4,88,30,21,27,28,39,low,coconuts,fruits,10,coconuts_10_10,1
3,T2,1,1,41,Some ,reptiles,are,iguanas,1,c,TRUE,634,20,2,8,3,4,4,88,30,21,27,28,39,low,iguanas,reptiles,25,iguanas_25_25,1
3,T3,1,0,42,Some ,stingrays,are,birds,0,m,TRUE,1117,20,2,8,3,4,4,88,30,21,27,28,39,low,stingrays,birds,50,stingrays_50_50,0
3,T4,1,1,43,All,tulips,are,flowers,1,c,TRUE,819,20,2,8,3,4,4,88,30,21,27,28,39,low,tulips,flowers,53,tulips_53_53,1
3,T5,1,0,44,All,insects,are,ladybugs,0,m,TRUE,1031,20,2,8,3,4,4,88,30,21,27,28,39,low,ladybugs,insects,27,ladybugs_27_27,0
3,T6,1,0,45,All,ducks,are,fish,1,m,FALSE,590,20,2,8,3,4,4,88,30,21,27,28,39,low,ducks,fish,15,ducks_15_15,1
3,T1,1,0,46,Some ,bananas,are,fruits,0,m,TRUE,563,20,2,8,3,4,4,88,30,21,27,28,39,low,bananas,fruits,4,bananas_4_4,1
3,T2,1,1,47,Some ,reptiles,are,frogs,0,c,FALSE,2537,20,2,8,3,4,4,88,30,21,27,28,39,low,frogs,reptiles,20,frogs_20_20,0
3,T3,1,0,48,Some ,tuna,are,birds,1,m,FALSE,1505,20,2,8,3,4,4,88,30,21,27,28,39,low,tuna,birds,54,tuna_54_54,1
3,T4,1,1,49,All,daisies,are,flowers,1,c,TRUE,362,20,2,8,3,4,4,88,30,21,27,28,39,low,daisies,flowers,12,daisies_12_12,1
3,T5,1,0,50,All,insects,are,bees,0,m,TRUE,868,20,2,8,3,4,4,88,30,21,27,28,39,low,bees,insects,5,bees_5_5,0
3,T6,1,0,51,All,flamingoes,are,fish,1,m,FALSE,2560,20,2,8,3,4,4,88,30,21,27,28,39,low,flamingoes,fish,19,flamingoes_19_19,1
3,T1,1,0,52,Some ,mangos,are,fruits,0,m,TRUE,1432,20,2,8,3,4,4,88,30,21,27,28,39,low,mangos,fruits,31,mangos_31_31,1
3,T2,1,1,53,Some ,reptiles,are,alligators,1,c,TRUE,1109,20,2,8,3,4,4,88,30,21,27,28,39,low,alligators,reptiles,1,alligators_1_1,1
3,T3,1,0,54,Some ,sardines,are,birds,1,m,FALSE,1367,20,2,8,3,4,4,88,30,21,27,28,39,low,sardines,birds,46,sardines_46_46,1
3,T4,1,1,55,All,rafflesias,are,flowers,1,c,TRUE,419,20,2,8,3,4,4,88,30,21,27,28,39,low,rafflesias,flowers,43,rafflesias_43_43,1
3,T5,1,0,56,All,insects,are,dragonflies,0,m,TRUE,1276,20,2,8,3,4,4,88,30,21,27,28,39,low,dragonflies,insects,14,dragonflies_14_14,0
3,T6,1,0,57,All,peacocks,are,fish,1,m,FALSE,1228,20,2,8,3,4,4,88,30,21,27,28,39,low,peacocks,fish,38,peacocks_38_38,1
4,T1,1,0,2,Some ,snakes,are,reptiles,0,m,TRUE,1006,23,6,6,4,3,2,80,20,35,33,16,43,low,snakes,reptiles,48,snakes_48_48,1
4,T2,1,1,3,Some ,fish,are,sharks,1,c,TRUE,1611,23,6,6,4,3,2,80,20,35,33,16,43,low,sharks,fish,47,sharks_47_47,1
4,T3,1,0,4,Some ,lavender,are,fruits,1,m,FALSE,590,23,6,6,4,3,2,80,20,35,33,16,43,low,lavender,fruits,28,lavender_28_28,1
4,T4,1,1,5,All,butterflies,are,insects,1,c,TRUE,866,23,6,6,4,3,2,80,20,35,33,16,43,low,butterflies,insects,6,butterflies_6_6,1
4,T5,1,0,6,All,birds,are,eagles,0,m,TRUE,835,23,6,6,4,3,2,80,20,35,33,16,43,low,eagles,birds,17,eagles_17_17,0
4,T6,1,0,7,All,pineapples,are,flowers,1,m,FALSE,775,23,6,6,4,3,2,80,20,35,33,16,43,low,pineapples,flowers,40,pineapples_40_40,1
4,T1,1,0,8,Some ,dinosaurs,are,reptiles,0,m,TRUE,437,23,6,6,4,3,2,80,20,35,33,16,43,low,dinosaurs,reptiles,13,dinosaurs_13_13,1
4,T2,1,1,9,Some ,fish,are,salmons,1,c,TRUE,901,23,6,6,4,3,2,80,20,35,33,16,43,low,salmons,fish,45,salmons_45_45,1
4,T3,1,0,10,Some ,lilies,are,fruits,1,m,FALSE,526,23,6,6,4,3,2,80,20,35,33,16,43,low,lilies,fruits,29,lilies_29_29,1
4,T4,1,1,11,All,mosquitoes,are,insects,1,c,TRUE,486,23,6,6,4,3,2,80,20,35,33,16,43,low,mosquitoes,insects,32,mosquitoes_32_32,1
4,T5,1,0,12,All,birds,are,owls,1,m,FALSE,737,23,6,6,4,3,2,80,20,35,33,16,43,low,owls,birds,35,owls_35_35,1
4,T6,1,0,13,All,strawberries,are,flowers,1,m,FALSE,582,23,6,6,4,3,2,80,20,35,33,16,43,low,strawberries,flowers,51,strawberries_51_51,1
4,T1,1,0,14,Some ,chameleons,are,reptiles,1,m,FALSE,2489,23,6,6,4,3,2,80,20,35,33,16,43,low,chameleons,reptiles,8,chameleons_8_8,0
4,T2,1,1,15,Some ,fish,are,anchovies,0,c,FALSE,1593,23,6,6,4,3,2,80,20,35,33,16,43,low,anchovies,fish,2,anchovies_2_2,0
4,T3,1,0,16,Some ,hibiscuses,are,fruits,1,m,FALSE,666,23,6,6,4,3,2,80,20,35,33,16,43,low,hibiscuses,fruits,24,hibiscuses_24_24,1
4,T4,1,1,17,All,cockroaches,are,insects,1,c,TRUE,436,23,6,6,4,3,2,80,20,35,33,16,43,low,cockroaches,insects,9,cockroaches_9_9,1
4,T5,1,0,18,All,birds,are,penguins,1,m,FALSE,655,23,6,6,4,3,2,80,20,35,33,16,43,low,penguins,birds,39,penguins_39_39,1
4,T6,1,0,19,All,watermelons,are,flowers,1,m,FALSE,655,23,6,6,4,3,2,80,20,35,33,16,43,low,watermelons,flowers,55,watermelons_55_55,1
4,T1,1,0,21,Some ,tortoises,are,reptiles,1,m,FALSE,1633,23,6,6,4,3,2,80,20,35,33,16,43,low,tortoises,reptiles,52,tortoises_52_52,0
4,T2,1,1,22,Some ,fish,are,eels,1,c,TRUE,680,23,6,6,4,3,2,80,20,35,33,16,43,low,eels,fish,18,eels_18_18,1
4,T3,1,0,23,Some ,roses,are,fruits,1,m,FALSE,584,23,6,6,4,3,2,80,20,35,33,16,43,low,roses,fruits,44,roses_44_44,1
4,T4,1,1,24,All,grasshoppers,are,insects,0,c,FALSE,1116,23,6,6,4,3,2,80,20,35,33,16,43,low,grasshoppers,insects,22,grasshoppers_22_22,0
4,T5,1,0,25,All,birds,are,parrots,0,m,TRUE,1052,23,6,6,4,3,2,80,20,35,33,16,43,low,parrots,birds,37,parrots_37_37,0
4,T6,1,0,26,All,papayas,are,flowers,1,m,FALSE,543,23,6,6,4,3,2,80,20,35,33,16,43,low,papayas,flowers,36,papayas_36_36,1
4,T1,1,0,27,Some ,lizards,are,reptiles,0,m,TRUE,599,23,6,6,4,3,2,80,20,35,33,16,43,low,lizards,reptiles,30,lizards_30_30,1
4,T2,1,1,28,Some ,fish,are,guppies,1,c,TRUE,1562,23,6,6,4,3,2,80,20,35,33,16,43,low,guppies,fish,23,guppies_23_23,1
4,T3,1,0,29,Some ,orchids,are,fruits,1,m,FALSE,551,23,6,6,4,3,2,80,20,35,33,16,43,low,orchids,fruits,33,orchids_33_33,1
4,T4,1,1,30,All,ants,are,insects,0,c,FALSE,476,23,6,6,4,3,2,80,20,35,33,16,43,low,ants,insects,3,ants_3_3,0
4,T5,1,0,31,All,birds,are,sparrows,0,m,TRUE,554,23,6,6,4,3,2,80,20,35,33,16,43,low,sparrows,birds,49,sparrows_49_49,0
4,T6,1,0,32,All,grapes,are,flowers,1,m,FALSE,603,23,6,6,4,3,2,80,20,35,33,16,43,low,grapes,flowers,21,grapes_21_21,1
4,T1,1,0,33,Some ,crocodiles,are,reptiles,0,m,TRUE,714,23,6,6,4,3,2,80,20,35,33,16,43,low,crocodiles,reptiles,11,crocodiles_11_11,1
4,T2,1,1,34,Some ,fish,are,piranha,1,c,TRUE,974,23,6,6,4,3,2,80,20,35,33,16,43,low,piranha,fish,41,piranha_41_41,1
4,T3,1,0,35,Some ,jasmines,are,fruits,1,m,FALSE,572,23,6,6,4,3,2,80,20,35,33,16,43,low,jasmines,fruits,26,jasmines_26_26,1
4,T4,1,1,36,All,caterpillars,are,insects,0,c,FALSE,664,23,6,6,4,3,2,80,20,35,33,16,43,low,caterpillars,insects,7,caterpillars_7_7,0
4,T5,1,0,37,All,birds,are,ostriches,1,m,FALSE,1176,23,6,6,4,3,2,80,20,35,33,16,43,low,ostriches,birds,34,ostriches_34_34,1
4,T6,1,0,38,All,durians,are,flowers,1,m,FALSE,507,23,6,6,4,3,2,80,20,35,33,16,43,low,durians,flowers,16,durians_16_16,1
4,T1,1,0,40,Some ,iguanas,are,reptiles,0,m,TRUE,398,23,6,6,4,3,2,80,20,35,33,16,43,low,iguanas,reptiles,25,iguanas_25_25,1
4,T2,1,1,41,Some ,fish,are,stingrays,1,c,TRUE,711,23,6,6,4,3,2,80,20,35,33,16,43,low,stingrays,fish,50,stingrays_50_50,1
4,T3,1,0,42,Some ,tulips,are,fruits,1,m,FALSE,508,23,6,6,4,3,2,80,20,35,33,16,43,low,tulips,fruits,53,tulips_53_53,1
4,T4,1,1,43,All,ladybugs,are,insects,1,c,TRUE,594,23,6,6,4,3,2,80,20,35,33,16,43,low,ladybugs,insects,27,ladybugs_27_27,1
4,T5,1,0,44,All,birds,are,ducks,1,m,FALSE,575,23,6,6,4,3,2,80,20,35,33,16,43,low,ducks,birds,15,ducks_15_15,1
4,T6,1,0,45,All,coconuts,are,flowers,1,m,FALSE,452,23,6,6,4,3,2,80,20,35,33,16,43,low,coconuts,flowers,10,coconuts_10_10,1
4,T1,1,0,46,Some ,frogs,are,reptiles,0,m,TRUE,371,23,6,6,4,3,2,80,20,35,33,16,43,low,frogs,reptiles,20,frogs_20_20,1
4,T2,1,1,47,Some ,fish,are,tuna,1,c,TRUE,989,23,6,6,4,3,2,80,20,35,33,16,43,low,tuna,fish,54,tuna_54_54,1
4,T3,1,0,48,Some ,daisies,are,fruits,1,m,FALSE,490,23,6,6,4,3,2,80,20,35,33,16,43,low,daisies,fruits,12,daisies_12_12,1
4,T4,1,1,49,All,bees,are,insects,0,c,FALSE,642,23,6,6,4,3,2,80,20,35,33,16,43,low,bees,insects,5,bees_5_5,0
4,T5,1,0,50,All,birds,are,flamingoes,1,m,FALSE,1134,23,6,6,4,3,2,80,20,35,33,16,43,low,flamingoes,birds,19,flamingoes_19_19,1
4,T6,1,0,51,All,bananas,are,flowers,1,m,FALSE,1362,23,6,6,4,3,2,80,20,35,33,16,43,low,bananas,flowers,4,bananas_4_4,1
4,T1,1,0,52,Some ,alligators,are,reptiles,0,m,TRUE,337,23,6,6,4,3,2,80,20,35,33,16,43,low,alligators,reptiles,1,alligators_1_1,1
4,T2,1,1,53,Some ,fish,are,sardines,1,c,TRUE,1050,23,6,6,4,3,2,80,20,35,33,16,43,low,sardines,fish,46,sardines_46_46,1
4,T3,1,0,54,Some ,rafflesias,are,fruits,1,m,FALSE,520,23,6,6,4,3,2,80,20,35,33,16,43,low,rafflesias,fruits,43,rafflesias_43_43,1
4,T4,1,1,55,All,dragonflies,are,insects,0,c,FALSE,448,23,6,6,4,3,2,80,20,35,33,16,43,low,dragonflies,insects,14,dragonflies_14_14,0
4,T5,1,0,56,All,birds,are,peacocks,1,m,FALSE,986,23,6,6,4,3,2,80,20,35,33,16,43,low,peacocks,birds,38,peacocks_38_38,1
4,T6,1,0,57,All,mangos,are,flowers,1,m,FALSE,1182,23,6,6,4,3,2,80,20,35,33,16,43,low,mangos,flowers,31,mangos_31_31,1
5,T1,1,0,2,Some ,sharks,are,fish,1,m,FALSE,2955,24,1,5,6,3,3,85,27,28,25,27,40,low,sharks,fish,47,sharks_47_47,0
5,T2,1,1,3,Some ,flowers,are,lavender,1,c,TRUE,3149,24,1,5,6,3,3,85,27,28,25,27,40,low,lavender,flowers,28,lavender_28_28,1
5,T3,1,0,4,Some ,butterflies,are,reptiles,1,m,FALSE,5446,24,1,5,6,3,3,85,27,28,25,27,40,low,butterflies,reptiles,6,butterflies_6_6,1
5,T4,1,1,5,All,eagles,are,birds,1,c,TRUE,2116,24,1,5,6,3,3,85,27,28,25,27,40,low,eagles,birds,17,eagles_17_17,1
5,T5,1,0,6,All,fruits,are,pineapples,1,m,FALSE,2505,24,1,5,6,3,3,85,27,28,25,27,40,low,pineapples,fruits,40,pineapples_40_40,1
5,T6,1,0,7,All,snakes,are,insects,1,m,FALSE,3510,24,1,5,6,3,3,85,27,28,25,27,40,low,snakes,insects,48,snakes_48_48,1
5,T1,1,0,8,Some ,salmons,are,fish,1,m,FALSE,5047,24,1,5,6,3,3,85,27,28,25,27,40,low,salmons,fish,45,salmons_45_45,0
5,T2,1,1,9,Some ,flowers,are,lilies,1,c,TRUE,5076,24,1,5,6,3,3,85,27,28,25,27,40,low,lilies,flowers,29,lilies_29_29,1
5,T3,1,0,10,Some ,mosquitoes,are,reptiles,1,m,FALSE,6949,24,1,5,6,3,3,85,27,28,25,27,40,low,mosquitoes,reptiles,32,mosquitoes_32_32,1
5,T4,1,1,11,All,owls,are,birds,1,c,TRUE,2387,24,1,5,6,3,3,85,27,28,25,27,40,low,owls,birds,35,owls_35_35,1
5,T5,1,0,12,All,fruits,are,strawberries,1,m,FALSE,1727,24,1,5,6,3,3,85,27,28,25,27,40,low,strawberries,fruits,51,strawberries_51_51,1
5,T6,1,0,13,All,dinosaurs,are,insects,1,m,FALSE,3778,24,1,5,6,3,3,85,27,28,25,27,40,low,dinosaurs,insects,13,dinosaurs_13_13,1
5,T1,1,0,14,Some ,anchovies,are,fish,1,m,FALSE,5310,24,1,5,6,3,3,85,27,28,25,27,40,low,anchovies,fish,2,anchovies_2_2,0
5,T2,1,1,15,Some ,flowers,are,hibiscuses,1,c,TRUE,3068,24,1,5,6,3,3,85,27,28,25,27,40,low,hibiscuses,flowers,24,hibiscuses_24_24,1
5,T3,1,0,16,Some ,cockroaches,are,reptiles,1,m,FALSE,13348,24,1,5,6,3,3,85,27,28,25,27,40,low,cockroaches,reptiles,9,cockroaches_9_9,1
5,T4,1,1,17,All,penguins,are,birds,1,c,TRUE,1464,24,1,5,6,3,3,85,27,28,25,27,40,low,penguins,birds,39,penguins_39_39,1
5,T5,1,0,18,All,fruits,are,watermelons,1,m,FALSE,1307,24,1,5,6,3,3,85,27,28,25,27,40,low,watermelons,fruits,55,watermelons_55_55,1
5,T6,1,0,19,All,chameleons,are,insects,1,m,FALSE,4504,24,1,5,6,3,3,85,27,28,25,27,40,low,chameleons,insects,8,chameleons_8_8,1
5,T1,1,0,21,Some ,eels,are,fish,1,m,FALSE,3388,24,1,5,6,3,3,85,27,28,25,27,40,low,eels,fish,18,eels_18_18,0
5,T2,1,1,22,Some ,flowers,are,roses,1,c,TRUE,2423,24,1,5,6,3,3,85,27,28,25,27,40,low,roses,flowers,44,roses_44_44,1
5,T3,1,0,23,Some ,grasshoppers,are,reptiles,1,m,FALSE,3036,24,1,5,6,3,3,85,27,28,25,27,40,low,grasshoppers,reptiles,22,grasshoppers_22_22,1
5,T4,1,1,24,All,parrots,are,birds,1,c,TRUE,1103,24,1,5,6,3,3,85,27,28,25,27,40,low,parrots,birds,37,parrots_37_37,1
5,T5,1,0,25,All,fruits,are,papayas,1,m,FALSE,1176,24,1,5,6,3,3,85,27,28,25,27,40,low,papayas,fruits,36,papayas_36_36,1
5,T6,1,0,26,All,tortoises,are,insects,1,m,FALSE,1630,24,1,5,6,3,3,85,27,28,25,27,40,low,tortoises,insects,52,tortoises_52_52,1
5,T1,1,0,27,Some ,guppies,are,fish,1,m,FALSE,2312,24,1,5,6,3,3,85,27,28,25,27,40,low,guppies,fish,23,guppies_23_23,0
5,T2,1,1,28,Some ,flowers,are,orchids,1,c,TRUE,1658,24,1,5,6,3,3,85,27,28,25,27,40,low,orchids,flowers,33,orchids_33_33,1
5,T3,1,0,29,Some ,ants,are,reptiles,1,m,FALSE,4882,24,1,5,6,3,3,85,27,28,25,27,40,low,ants,reptiles,3,ants_3_3,1
5,T4,1,1,30,All,sparrows,are,birds,1,c,TRUE,2095,24,1,5,6,3,3,85,27,28,25,27,40,low,sparrows,birds,49,sparrows_49_49,1
5,T5,1,0,31,All,fruits,are,grapes,1,m,FALSE,1294,24,1,5,6,3,3,85,27,28,25,27,40,low,grapes,fruits,21,grapes_21_21,1
5,T6,1,0,32,All,lizards,are,insects,0,m,TRUE,2052,24,1,5,6,3,3,85,27,28,25,27,40,low,lizards,insects,30,lizards_30_30,0
5,T1,1,0,33,Some ,piranha,are,fish,1,m,FALSE,2931,24,1,5,6,3,3,85,27,28,25,27,40,low,piranha,fish,41,piranha_41_41,0
5,T2,1,1,34,Some ,flowers,are,jasmines,1,c,TRUE,3726,24,1,5,6,3,3,85,27,28,25,27,40,low,jasmines,flowers,26,jasmines_26_26,1
5,T3,1,0,35,Some ,caterpillars,are,reptiles,1,m,FALSE,3403,24,1,5,6,3,3,85,27,28,25,27,40,low,caterpillars,reptiles,7,caterpillars_7_7,1
5,T4,1,1,36,All,ostriches,are,birds,1,c,TRUE,1235,24,1,5,6,3,3,85,27,28,25,27,40,low,ostriches,birds,34,ostriches_34_34,1
5,T5,1,0,37,All,fruits,are,durians,1,m,FALSE,1346,24,1,5,6,3,3,85,27,28,25,27,40,low,durians,fruits,16,durians_16_16,1
5,T6,1,0,38,All,crocodiles,are,insects,1,m,FALSE,1582,24,1,5,6,3,3,85,27,28,25,27,40,low,crocodiles,insects,11,crocodiles_11_11,1
5,T1,1,0,40,Some ,stingrays,are,fish,1,m,FALSE,1971,24,1,5,6,3,3,85,27,28,25,27,40,low,stingrays,fish,50,stingrays_50_50,0
5,T2,1,1,41,Some ,flowers,are,tulips,1,c,TRUE,1329,24,1,5,6,3,3,85,27,28,25,27,40,low,tulips,flowers,53,tulips_53_53,1
5,T3,1,0,42,Some ,ladybugs,are,reptiles,1,m,FALSE,1810,24,1,5,6,3,3,85,27,28,25,27,40,low,ladybugs,reptiles,27,ladybugs_27_27,1
5,T4,1,1,43,All,ducks,are,birds,0,c,FALSE,5116,24,1,5,6,3,3,85,27,28,25,27,40,low,ducks,birds,15,ducks_15_15,0
5,T5,1,0,44,All,fruits,are,coconuts,1,m,FALSE,699,24,1,5,6,3,3,85,27,28,25,27,40,low,coconuts,fruits,10,coconuts_10_10,1
5,T6,1,0,45,All,iguanas,are,insects,1,m,FALSE,5806,24,1,5,6,3,3,85,27,28,25,27,40,low,iguanas,insects,25,iguanas_25_25,1
5,T1,1,0,46,Some ,tuna,are,fish,1,m,FALSE,1781,24,1,5,6,3,3,85,27,28,25,27,40,low,tuna,fish,54,tuna_54_54,0
5,T2,1,1,47,Some ,flowers,are,daisies,1,c,TRUE,1679,24,1,5,6,3,3,85,27,28,25,27,40,low,daisies,flowers,12,daisies_12_12,1
5,T3,1,0,48,Some ,bees,are,reptiles,1,m,FALSE,2511,24,1,5,6,3,3,85,27,28,25,27,40,low,bees,reptiles,5,bees_5_5,1
5,T4,1,1,49,All,flamingoes,are,birds,1,c,TRUE,976,24,1,5,6,3,3,85,27,28,25,27,40,low,flamingoes,birds,19,flamingoes_19_19,1
5,T5,1,0,50,All,fruits,are,bananas,1,m,FALSE,652,24,1,5,6,3,3,85,27,28,25,27,40,low,bananas,fruits,4,bananas_4_4,1
5,T6,1,0,51,All,frogs,are,insects,1,m,FALSE,2814,24,1,5,6,3,3,85,27,28,25,27,40,low,frogs,insects,20,frogs_20_20,1
5,T1,1,0,52,Some ,sardines,are,fish,1,m,FALSE,1222,24,1,5,6,3,3,85,27,28,25,27,40,low,sardines,fish,46,sardines_46_46,0
5,T2,1,1,53,Some ,flowers,are,rafflesias,1,c,TRUE,1240,24,1,5,6,3,3,85,27,28,25,27,40,low,rafflesias,flowers,43,rafflesias_43_43,1
5,T3,1,0,54,Some ,dragonflies,are,reptiles,1,m,FALSE,1317,24,1,5,6,3,3,85,27,28,25,27,40,low,dragonflies,reptiles,14,dragonflies_14_14,1
5,T4,1,1,55,All,peacocks,are,birds,1,c,TRUE,1095,24,1,5,6,3,3,85,27,28,25,27,40,low,peacocks,birds,38,peacocks_38_38,1
5,T5,1,0,56,All,fruits,are,mangos,1,m,FALSE,924,24,1,5,6,3,3,85,27,28,25,27,40,low,mangos,fruits,31,mangos_31_31,1
5,T6,1,0,57,All,alligators,are,insects,1,m,FALSE,2062,24,1,5,6,3,3,85,27,28,25,27,40,low,alligators,insects,1,alligators_1_1,1
10,T1,1,0,2,Some ,snakes,are,reptiles,0,m,TRUE,895,21,5,7,8,5,3,58,22,29,33,31,36,low,snakes,reptiles,48,snakes_48_48,1
10,T2,1,1,3,Some ,fish,are,sharks,0,c,FALSE,1503,21,5,7,8,5,3,58,22,29,33,31,36,low,sharks,fish,47,sharks_47_47,0
10,T3,1,0,4,Some ,lavender,are,fruits,1,m,FALSE,797,21,5,7,8,5,3,58,22,29,33,31,36,low,lavender,fruits,28,lavender_28_28,1
10,T4,1,1,5,All,butterflies,are,insects,1,c,TRUE,1096,21,5,7,8,5,3,58,22,29,33,31,36,low,butterflies,insects,6,butterflies_6_6,1
10,T5,1,0,6,All,birds,are,eagles,1,m,FALSE,1455,21,5,7,8,5,3,58,22,29,33,31,36,low,eagles,birds,17,eagles_17_17,1
10,T6,1,0,7,All,pineapples,are,flowers,1,m,FALSE,2158,21,5,7,8,5,3,58,22,29,33,31,36,low,pineapples,flowers,40,pineapples_40_40,1
10,T1,1,0,8,Some ,dinosaurs,are,reptiles,0,m,TRUE,1650,21,5,7,8,5,3,58,22,29,33,31,36,low,dinosaurs,reptiles,13,dinosaurs_13_13,1
10,T2,1,1,9,Some ,fish,are,salmons,0,c,FALSE,1270,21,5,7,8,5,3,58,22,29,33,31,36,low,salmons,fish,45,salmons_45_45,0
10,T3,1,0,10,Some ,lilies,are,fruits,1,m,FALSE,978,21,5,7,8,5,3,58,22,29,33,31,36,low,lilies,fruits,29,lilies_29_29,1
10,T4,1,1,11,All,mosquitoes,are,insects,1,c,TRUE,967,21,5,7,8,5,3,58,22,29,33,31,36,low,mosquitoes,insects,32,mosquitoes_32_32,1
10,T5,1,0,12,All,birds,are,owls,1,m,FALSE,1281,21,5,7,8,5,3,58,22,29,33,31,36,low,owls,birds,35,owls_35_35,1
10,T6,1,0,13,All,strawberries,are,flowers,1,m,FALSE,968,21,5,7,8,5,3,58,22,29,33,31,36,low,strawberries,flowers,51,strawberries_51_51,1
10,T1,1,0,14,Some ,chameleons,are,reptiles,0,m,TRUE,1415,21,5,7,8,5,3,58,22,29,33,31,36,low,chameleons,reptiles,8,chameleons_8_8,1
10,T2,1,1,15,Some ,fish,are,anchovies,1,c,TRUE,1915,21,5,7,8,5,3,58,22,29,33,31,36,low,anchovies,fish,2,anchovies_2_2,1
10,T3,1,0,16,Some ,hibiscuses,are,fruits,1,m,FALSE,1424,21,5,7,8,5,3,58,22,29,33,31,36,low,hibiscuses,fruits,24,hibiscuses_24_24,1
10,T4,1,1,17,All,cockroaches,are,insects,1,c,TRUE,541,21,5,7,8,5,3,58,22,29,33,31,36,low,cockroaches,insects,9,cockroaches_9_9,1
10,T5,1,0,18,All,birds,are,penguins,1,m,FALSE,2078,21,5,7,8,5,3,58,22,29,33,31,36,low,penguins,birds,39,penguins_39_39,1
10,T6,1,0,19,All,watermelons,are,flowers,1,m,FALSE,906,21,5,7,8,5,3,58,22,29,33,31,36,low,watermelons,flowers,55,watermelons_55_55,1
10,T1,1,0,21,Some ,tortoises,are,reptiles,1,m,FALSE,1892,21,5,7,8,5,3,58,22,29,33,31,36,low,tortoises,reptiles,52,tortoises_52_52,0
10,T2,1,1,22,Some ,fish,are,eels,1,c,TRUE,1639,21,5,7,8,5,3,58,22,29,33,31,36,low,eels,fish,18,eels_18_18,1
10,T3,1,0,23,Some ,roses,are,fruits,1,m,FALSE,1621,21,5,7,8,5,3,58,22,29,33,31,36,low,roses,fruits,44,roses_44_44,1
10,T4,1,1,24,All,grasshoppers,are,insects,1,c,TRUE,1709,21,5,7,8,5,3,58,22,29,33,31,36,low,grasshoppers,insects,22,grasshoppers_22_22,1
10,T5,1,0,25,All,birds,are,parrots,1,m,FALSE,3244,21,5,7,8,5,3,58,22,29,33,31,36,low,parrots,birds,37,parrots_37_37,1
10,T6,1,0,26,All,papayas,are,flowers,1,m,FALSE,892,21,5,7,8,5,3,58,22,29,33,31,36,low,papayas,flowers,36,papayas_36_36,1
10,T1,1,0,27,Some ,lizards,are,reptiles,0,m,TRUE,757,21,5,7,8,5,3,58,22,29,33,31,36,low,lizards,reptiles,30,lizards_30_30,1
10,T2,1,1,28,Some ,fish,are,guppies,1,c,TRUE,1266,21,5,7,8,5,3,58,22,29,33,31,36,low,guppies,fish,23,guppies_23_23,1
10,T3,1,0,29,Some ,orchids,are,fruits,1,m,FALSE,849,21,5,7,8,5,3,58,22,29,33,31,36,low,orchids,fruits,33,orchids_33_33,1
10,T4,1,1,30,All,ants,are,insects,1,c,TRUE,413,21,5,7,8,5,3,58,22,29,33,31,36,low,ants,insects,3,ants_3_3,1
10,T5,1,0,31,All,birds,are,sparrows,1,m,FALSE,1443,21,5,7,8,5,3,58,22,29,33,31,36,low,sparrows,birds,49,sparrows_49_49,1
10,T6,1,0,32,All,grapes,are,flowers,1,m,FALSE,2337,21,5,7,8,5,3,58,22,29,33,31,36,low,grapes,flowers,21,grapes_21_21,1
10,T1,1,0,33,Some ,crocodiles,are,reptiles,0,m,TRUE,591,21,5,7,8,5,3,58,22,29,33,31,36,low,crocodiles,reptiles,11,crocodiles_11_11,1
10,T2,1,1,34,Some ,fish,are,piranha,1,c,TRUE,1791,21,5,7,8,5,3,58,22,29,33,31,36,low,piranha,fish,41,piranha_41_41,1
10,T3,1,0,35,Some ,jasmines,are,fruits,1,m,FALSE,1066,21,5,7,8,5,3,58,22,29,33,31,36,low,jasmines,fruits,26,jasmines_26_26,1
10,T4,1,1,36,All,caterpillars,are,insects,1,c,TRUE,645,21,5,7,8,5,3,58,22,29,33,31,36,low,caterpillars,insects,7,caterpillars_7_7,1
10,T5,1,0,37,All,birds,are,ostriches,1,m,FALSE,1650,21,5,7,8,5,3,58,22,29,33,31,36,low,ostriches,birds,34,ostriches_34_34,1
10,T6,1,0,38,All,durians,are,flowers,1,m,FALSE,702,21,5,7,8,5,3,58,22,29,33,31,36,low,durians,flowers,16,durians_16_16,1
10,T1,1,0,40,Some ,iguanas,are,reptiles,0,m,TRUE,2502,21,5,7,8,5,3,58,22,29,33,31,36,low,iguanas,reptiles,25,iguanas_25_25,1
10,T2,1,1,41,Some ,fish,are,stingrays,1,c,TRUE,1360,21,5,7,8,5,3,58,22,29,33,31,36,low,stingrays,fish,50,stingrays_50_50,1
10,T3,1,0,42,Some ,tulips,are,fruits,1,m,FALSE,867,21,5,7,8,5,3,58,22,29,33,31,36,low,tulips,fruits,53,tulips_53_53,1
10,T4,1,1,43,All,ladybugs,are,insects,1,c,TRUE,869,21,5,7,8,5,3,58,22,29,33,31,36,low,ladybugs,insects,27,ladybugs_27_27,1
10,T5,1,0,44,All,birds,are,ducks,1,m,FALSE,1402,21,5,7,8,5,3,58,22,29,33,31,36,low,ducks,birds,15,ducks_15_15,1
10,T6,1,0,45,All,coconuts,are,flowers,1,m,FALSE,757,21,5,7,8,5,3,58,22,29,33,31,36,low,coconuts,flowers,10,coconuts_10_10,1
10,T1,1,0,46,Some ,frogs,are,reptiles,0,m,TRUE,1137,21,5,7,8,5,3,58,22,29,33,31,36,low,frogs,reptiles,20,frogs_20_20,1
10,T2,1,1,47,Some ,fish,are,tuna,1,c,TRUE,1000,21,5,7,8,5,3,58,22,29,33,31,36,low,tuna,fish,54,tuna_54_54,1
10,T3,1,0,48,Some ,daisies,are,fruits,1,m,FALSE,719,21,5,7,8,5,3,58,22,29,33,31,36,low,daisies,fruits,12,daisies_12_12,1
10,T4,1,1,49,All,bees,are,insects,1,c,TRUE,446,21,5,7,8,5,3,58,22,29,33,31,36,low,bees,insects,5,bees_5_5,1
10,T5,1,0,50,All,birds,are,flamingoes,1,m,FALSE,1432,21,5,7,8,5,3,58,22,29,33,31,36,low,flamingoes,birds,19,flamingoes_19_19,1
10,T6,1,0,51,All,bananas,are,flowers,1,m,FALSE,1340,21,5,7,8,5,3,58,22,29,33,31,36,low,bananas,flowers,4,bananas_4_4,1
10,T1,1,0,52,Some ,alligators,are,reptiles,0,m,TRUE,806,21,5,7,8,5,3,58,22,29,33,31,36,low,alligators,reptiles,1,alligators_1_1,1
10,T2,1,1,53,Some ,fish,are,sardines,1,c,TRUE,601,21,5,7,8,5,3,58,22,29,33,31,36,low,sardines,fish,46,sardines_46_46,1
10,T3,1,0,54,Some ,rafflesias,are,fruits,1,m,FALSE,699,21,5,7,8,5,3,58,22,29,33,31,36,low,rafflesias,fruits,43,rafflesias_43_43,1
10,T4,1,1,55,All,dragonflies,are,insects,1,c,TRUE,1221,21,5,7,8,5,3,58,22,29,33,31,36,low,dragonflies,insects,14,dragonflies_14_14,1
10,T5,1,0,56,All,birds,are,peacocks,1,m,FALSE,1374,21,5,7,8,5,3,58,22,29,33,31,36,low,peacocks,birds,38,peacocks_38_38,1
10,T6,1,0,57,All,mangos,are,flowers,1,m,FALSE,642,21,5,7,8,5,3,58,22,29,33,31,36,low,mangos,flowers,31,mangos_31_31,1
11,T1,1,0,2,Some ,sharks,are,fish,1,m,FALSE,1608,22,9,4,5,5,3,54,17,23,18,32,33,low,sharks,fish,47,sharks_47_47,0
11,T2,1,1,3,Some ,flowers,are,lavender,1,c,TRUE,1371,22,9,4,5,5,3,54,17,23,18,32,33,low,lavender,flowers,28,lavender_28_28,1
11,T3,1,0,4,Some ,butterflies,are,reptiles,1,m,FALSE,1106,22,9,4,5,5,3,54,17,23,18,32,33,low,butterflies,reptiles,6,butterflies_6_6,1
11,T4,1,1,5,All,eagles,are,birds,1,c,TRUE,2023,22,9,4,5,5,3,54,17,23,18,32,33,low,eagles,birds,17,eagles_17_17,1
11,T5,1,0,6,All,fruits,are,pineapples,1,m,FALSE,1371,22,9,4,5,5,3,54,17,23,18,32,33,low,pineapples,fruits,40,pineapples_40_40,1
11,T6,1,0,7,All,snakes,are,insects,1,m,FALSE,1235,22,9,4,5,5,3,54,17,23,18,32,33,low,snakes,insects,48,snakes_48_48,1
11,T1,1,0,8,Some ,salmons,are,fish,0,m,TRUE,1821,22,9,4,5,5,3,54,17,23,18,32,33,low,salmons,fish,45,salmons_45_45,1
11,T2,1,1,9,Some ,flowers,are,lilies,1,c,TRUE,1209,22,9,4,5,5,3,54,17,23,18,32,33,low,lilies,flowers,29,lilies_29_29,1
11,T3,1,0,10,Some ,mosquitoes,are,reptiles,1,m,FALSE,956,22,9,4,5,5,3,54,17,23,18,32,33,low,mosquitoes,reptiles,32,mosquitoes_32_32,1
11,T4,1,1,11,All,owls,are,birds,1,c,TRUE,1426,22,9,4,5,5,3,54,17,23,18,32,33,low,owls,birds,35,owls_35_35,1
11,T5,1,0,12,All,fruits,are,strawberries,0,m,TRUE,952,22,9,4,5,5,3,54,17,23,18,32,33,low,strawberries,fruits,51,strawberries_51_51,0
11,T6,1,0,13,All,dinosaurs,are,insects,1,m,FALSE,856,22,9,4,5,5,3,54,17,23,18,32,33,low,dinosaurs,insects,13,dinosaurs_13_13,1
11,T1,1,0,14,Some ,anchovies,are,fish,0,m,TRUE,1052,22,9,4,5,5,3,54,17,23,18,32,33,low,anchovies,fish,2,anchovies_2_2,1
11,T2,1,1,15,Some ,flowers,are,hibiscuses,1,c,TRUE,909,22,9,4,5,5,3,54,17,23,18,32,33,low,hibiscuses,flowers,24,hibiscuses_24_24,1
11,T3,1,0,16,Some ,cockroaches,are,reptiles,1,m,FALSE,1036,22,9,4,5,5,3,54,17,23,18,32,33,low,cockroaches,reptiles,9,cockroaches_9_9,1
11,T4,1,1,17,All,penguins,are,birds,1,c,TRUE,1573,22,9,4,5,5,3,54,17,23,18,32,33,low,penguins,birds,39,penguins_39_39,1
11,T5,1,0,18,All,fruits,are,watermelons,0,m,TRUE,1097,22,9,4,5,5,3,54,17,23,18,32,33,low,watermelons,fruits,55,watermelons_55_55,0
11,T6,1,0,19,All,chameleons,are,insects,1,m,FALSE,2013,22,9,4,5,5,3,54,17,23,18,32,33,low,chameleons,insects,8,chameleons_8_8,1
11,T1,1,0,21,Some ,eels,are,fish,0,m,TRUE,2830,22,9,4,5,5,3,54,17,23,18,32,33,low,eels,fish,18,eels_18_18,1
11,T2,1,1,22,Some ,flowers,are,roses,1,c,TRUE,1659,22,9,4,5,5,3,54,17,23,18,32,33,low,roses,flowers,44,roses_44_44,1
11,T3,1,0,23,Some ,grasshoppers,are,reptiles,1,m,FALSE,1048,22,9,4,5,5,3,54,17,23,18,32,33,low,grasshoppers,reptiles,22,grasshoppers_22_22,1
11,T4,1,1,24,All,parrots,are,birds,1,c,TRUE,1182,22,9,4,5,5,3,54,17,23,18,32,33,low,parrots,birds,37,parrots_37_37,1
11,T5,1,0,25,All,fruits,are,papayas,1,m,FALSE,2528,22,9,4,5,5,3,54,17,23,18,32,33,low,papayas,fruits,36,papayas_36_36,1
11,T6,1,0,26,All,tortoises,are,insects,1,m,FALSE,2436,22,9,4,5,5,3,54,17,23,18,32,33,low,tortoises,insects,52,tortoises_52_52,1
11,T1,1,0,27,Some ,guppies,are,fish,0,m,TRUE,3319,22,9,4,5,5,3,54,17,23,18,32,33,low,guppies,fish,23,guppies_23_23,1
11,T2,1,1,28,Some ,flowers,are,orchids,0,c,FALSE,2875,22,9,4,5,5,3,54,17,23,18,32,33,low,orchids,flowers,33,orchids_33_33,0
11,T3,1,0,29,Some ,ants,are,reptiles,1,m,FALSE,3709,22,9,4,5,5,3,54,17,23,18,32,33,low,ants,reptiles,3,ants_3_3,1
11,T4,1,1,30,All,sparrows,are,birds,1,c,TRUE,1730,22,9,4,5,5,3,54,17,23,18,32,33,low,sparrows,birds,49,sparrows_49_49,1
11,T5,1,0,31,All,fruits,are,grapes,1,m,FALSE,1356,22,9,4,5,5,3,54,17,23,18,32,33,low,grapes,fruits,21,grapes_21_21,1
11,T6,1,0,32,All,lizards,are,insects,0,m,TRUE,2702,22,9,4,5,5,3,54,17,23,18,32,33,low,lizards,insects,30,lizards_30_30,0
11,T1,1,0,33,Some ,piranha,are,fish,1,m,FALSE,3787,22,9,4,5,5,3,54,17,23,18,32,33,low,piranha,fish,41,piranha_41_41,0
11,T2,1,1,34,Some ,flowers,are,jasmines,1,c,TRUE,3189,22,9,4,5,5,3,54,17,23,18,32,33,low,jasmines,flowers,26,jasmines_26_26,1
11,T3,1,0,35,Some ,caterpillars,are,reptiles,1,m,FALSE,2982,22,9,4,5,5,3,54,17,23,18,32,33,low,caterpillars,reptiles,7,caterpillars_7_7,1
11,T4,1,1,36,All,ostriches,are,birds,1,c,TRUE,1974,22,9,4,5,5,3,54,17,23,18,32,33,low,ostriches,birds,34,ostriches_34_34,1
11,T5,1,0,37,All,fruits,are,durians,1,m,FALSE,2255,22,9,4,5,5,3,54,17,23,18,32,33,low,durians,fruits,16,durians_16_16,1
11,T6,1,0,38,All,crocodiles,are,insects,1,m,FALSE,2831,22,9,4,5,5,3,54,17,23,18,32,33,low,crocodiles,insects,11,crocodiles_11_11,1
11,T1,1,0,40,Some ,stingrays,are,fish,0,m,TRUE,1806,22,9,4,5,5,3,54,17,23,18,32,33,low,stingrays,fish,50,stingrays_50_50,1
11,T2,1,1,41,Some ,flowers,are,tulips,0,c,FALSE,2039,22,9,4,5,5,3,54,17,23,18,32,33,low,tulips,flowers,53,tulips_53_53,0
11,T3,1,0,42,Some ,ladybugs,are,reptiles,1,m,FALSE,1122,22,9,4,5,5,3,54,17,23,18,32,33,low,ladybugs,reptiles,27,ladybugs_27_27,1
11,T4,1,1,43,All,ducks,are,birds,0,c,FALSE,3066,22,9,4,5,5,3,54,17,23,18,32,33,low,ducks,birds,15,ducks_15_15,0
11,T5,1,0,44,All,fruits,are,coconuts,1,m,FALSE,2119,22,9,4,5,5,3,54,17,23,18,32,33,low,coconuts,fruits,10,coconuts_10_10,1
11,T6,1,0,45,All,iguanas,are,insects,1,m,FALSE,1928,22,9,4,5,5,3,54,17,23,18,32,33,low,iguanas,insects,25,iguanas_25_25,1
11,T1,1,0,46,Some ,tuna,are,fish,0,m,TRUE,2574,22,9,4,5,5,3,54,17,23,18,32,33,low,tuna,fish,54,tuna_54_54,1
11,T2,1,1,47,Some ,flowers,are,daisies,1,c,TRUE,2551,22,9,4,5,5,3,54,17,23,18,32,33,low,daisies,flowers,12,daisies_12_12,1
11,T3,1,0,48,Some ,bees,are,reptiles,1,m,FALSE,1936,22,9,4,5,5,3,54,17,23,18,32,33,low,bees,reptiles,5,bees_5_5,1
11,T4,1,1,49,All,flamingoes,are,birds,1,c,TRUE,1527,22,9,4,5,5,3,54,17,23,18,32,33,low,flamingoes,birds,19,flamingoes_19_19,1
11,T5,1,0,50,All,fruits,are,bananas,1,m,FALSE,1804,22,9,4,5,5,3,54,17,23,18,32,33,low,bananas,fruits,4,bananas_4_4,1
11,T6,1,0,51,All,frogs,are,insects,1,m,FALSE,2923,22,9,4,5,5,3,54,17,23,18,32,33,low,frogs,insects,20,frogs_20_20,1
11,T1,1,0,52,Some ,sardines,are,fish,1,m,FALSE,3006,22,9,4,5,5,3,54,17,23,18,32,33,low,sardines,fish,46,sardines_46_46,0
11,T2,1,1,53,Some ,flowers,are,rafflesias,1,c,TRUE,3211,22,9,4,5,5,3,54,17,23,18,32,33,low,rafflesias,flowers,43,rafflesias_43_43,1
11,T3,1,0,54,Some ,dragonflies,are,reptiles,1,m,FALSE,1881,22,9,4,5,5,3,54,17,23,18,32,33,low,dragonflies,reptiles,14,dragonflies_14_14,1
11,T4,1,1,55,All,peacocks,are,birds,1,c,TRUE,2797,22,9,4,5,5,3,54,17,23,18,32,33,low,peacocks,birds,38,peacocks_38_38,1
11,T5,1,0,56,All,fruits,are,mangos,1,m,FALSE,1398,22,9,4,5,5,3,54,17,23,18,32,33,low,mangos,fruits,31,mangos_31_31,1
11,T6,1,0,57,All,alligators,are,insects,1,m,FALSE,1456,22,9,4,5,5,3,54,17,23,18,32,33,low,alligators,insects,1,alligators_1_1,1
12,T1,1,0,2,Some ,lavender,are,flowers,0,m,TRUE,436,22,8,5,8,4,1,69,23,25,27,37,37,low,lavender,flowers,28,lavender_28_28,1
12,T2,1,1,3,Some ,insects,are,butterflies,1,c,TRUE,696,22,8,5,8,4,1,69,23,25,27,37,37,low,butterflies,insects,6,butterflies_6_6,1
12,T3,1,0,4,Some ,eagles,are,fish,1,m,FALSE,531,22,8,5,8,4,1,69,23,25,27,37,37,low,eagles,fish,17,eagles_17_17,1
12,T4,1,1,5,All,pineapples,are,fruits,1,c,TRUE,412,22,8,5,8,4,1,69,23,25,27,37,37,low,pineapples,fruits,40,pineapples_40_40,1
12,T5,1,0,6,All,reptiles,are,snakes,0,m,TRUE,492,22,8,5,8,4,1,69,23,25,27,37,37,low,snakes,reptiles,48,snakes_48_48,0
12,T6,1,0,7,All,sharks,are,birds,1,m,FALSE,644,22,8,5,8,4,1,69,23,25,27,37,37,low,sharks,birds,47,sharks_47_47,1
12,T1,1,0,8,Some ,lilies,are,flowers,0,m,TRUE,420,22,8,5,8,4,1,69,23,25,27,37,37,low,lilies,flowers,29,lilies_29_29,1
12,T2,1,1,9,Some ,insects,are,mosquitoes,1,c,TRUE,757,22,8,5,8,4,1,69,23,25,27,37,37,low,mosquitoes,insects,32,mosquitoes_32_32,1
12,T3,1,0,10,Some ,owls,are,fish,1,m,FALSE,529,22,8,5,8,4,1,69,23,25,27,37,37,low,owls,fish,35,owls_35_35,1
12,T4,1,1,11,All,strawberries,are,fruits,1,c,TRUE,421,22,8,5,8,4,1,69,23,25,27,37,37,low,strawberries,fruits,51,strawberries_51_51,1
12,T5,1,0,12,All,reptiles,are,dinosaurs,1,m,FALSE,629,22,8,5,8,4,1,69,23,25,27,37,37,low,dinosaurs,reptiles,13,dinosaurs_13_13,1
12,T6,1,0,13,All,salmons,are,birds,1,m,FALSE,616,22,8,5,8,4,1,69,23,25,27,37,37,low,salmons,birds,45,salmons_45_45,1
12,T1,1,0,14,Some ,hibiscuses,are,flowers,0,m,TRUE,445,22,8,5,8,4,1,69,23,25,27,37,37,low,hibiscuses,flowers,24,hibiscuses_24_24,1
12,T2,1,1,15,Some ,insects,are,cockroaches,1,c,TRUE,634,22,8,5,8,4,1,69,23,25,27,37,37,low,cockroaches,insects,9,cockroaches_9_9,1
12,T3,1,0,16,Some ,penguins,are,fish,1,m,FALSE,491,22,8,5,8,4,1,69,23,25,27,37,37,low,penguins,fish,39,penguins_39_39,1
12,T4,1,1,17,All,watermelons,are,fruits,1,c,TRUE,508,22,8,5,8,4,1,69,23,25,27,37,37,low,watermelons,fruits,55,watermelons_55_55,1
12,T5,1,0,18,All,reptiles,are,chameleons,0,m,TRUE,804,22,8,5,8,4,1,69,23,25,27,37,37,low,chameleons,reptiles,8,chameleons_8_8,0
12,T6,1,0,19,All,anchovies,are,birds,1,m,FALSE,607,22,8,5,8,4,1,69,23,25,27,37,37,low,anchovies,birds,2,anchovies_2_2,1
12,T1,1,0,21,Some ,roses,are,flowers,0,m,TRUE,361,22,8,5,8,4,1,69,23,25,27,37,37,low,roses,flowers,44,roses_44_44,1
12,T2,1,1,22,Some ,insects,are,grasshoppers,1,c,TRUE,631,22,8,5,8,4,1,69,23,25,27,37,37,low,grasshoppers,insects,22,grasshoppers_22_22,1
12,T3,1,0,23,Some ,parrots,are,fish,1,m,FALSE,505,22,8,5,8,4,1,69,23,25,27,37,37,low,parrots,fish,37,parrots_37_37,1
12,T4,1,1,24,All,papayas,are,fruits,1,c,TRUE,374,22,8,5,8,4,1,69,23,25,27,37,37,low,papayas,fruits,36,papayas_36_36,1
12,T5,1,0,25,All,reptiles,are,tortoises,0,m,TRUE,1005,22,8,5,8,4,1,69,23,25,27,37,37,low,tortoises,reptiles,52,tortoises_52_52,0
12,T6,1,0,26,All,eels,are,birds,1,m,FALSE,557,22,8,5,8,4,1,69,23,25,27,37,37,low,eels,birds,18,eels_18_18,1
12,T1,1,0,27,Some ,orchids,are,flowers,0,m,TRUE,433,22,8,5,8,4,1,69,23,25,27,37,37,low,orchids,flowers,33,orchids_33_33,1
12,T2,1,1,28,Some ,insects,are,ants,1,c,TRUE,586,22,8,5,8,4,1,69,23,25,27,37,37,low,ants,insects,3,ants_3_3,1
12,T3,1,0,29,Some ,sparrows,are,fish,1,m,FALSE,501,22,8,5,8,4,1,69,23,25,27,37,37,low,sparrows,fish,49,sparrows_49_49,1
12,T4,1,1,30,All,grapes,are,fruits,1,c,TRUE,473,22,8,5,8,4,1,69,23,25,27,37,37,low,grapes,fruits,21,grapes_21_21,1
12,T5,1,0,31,All,reptiles,are,lizards,0,m,TRUE,647,22,8,5,8,4,1,69,23,25,27,37,37,low,lizards,reptiles,30,lizards_30_30,0
12,T6,1,0,32,All,guppies,are,birds,0,m,TRUE,1030,22,8,5,8,4,1,69,23,25,27,37,37,low,guppies,birds,23,guppies_23_23,0
12,T1,1,0,33,Some ,jasmines,are,flowers,0,m,TRUE,409,22,8,5,8,4,1,69,23,25,27,37,37,low,jasmines,flowers,26,jasmines_26_26,1
12,T2,1,1,34,Some ,insects,are,caterpillars,0,c,FALSE,1244,22,8,5,8,4,1,69,23,25,27,37,37,low,caterpillars,insects,7,caterpillars_7_7,0
12,T3,1,0,35,Some ,ostriches,are,fish,1,m,FALSE,1511,22,8,5,8,4,1,69,23,25,27,37,37,low,ostriches,fish,34,ostriches_34_34,1
12,T4,1,1,36,All,durians,are,fruits,1,c,TRUE,484,22,8,5,8,4,1,69,23,25,27,37,37,low,durians,fruits,16,durians_16_16,1
12,T5,1,0,37,All,reptiles,are,crocodiles,0,m,TRUE,644,22,8,5,8,4,1,69,23,25,27,37,37,low,crocodiles,reptiles,11,crocodiles_11_11,0
12,T6,1,0,38,All,piranha,are,birds,1,m,FALSE,745,22,8,5,8,4,1,69,23,25,27,37,37,low,piranha,birds,41,piranha_41_41,1
12,T1,1,0,40,Some ,tulips,are,flowers,0,m,TRUE,447,22,8,5,8,4,1,69,23,25,27,37,37,low,tulips,flowers,53,tulips_53_53,1
12,T2,1,1,41,Some ,insects,are,ladybugs,1,c,TRUE,859,22,8,5,8,4,1,69,23,25,27,37,37,low,ladybugs,insects,27,ladybugs_27_27,1
12,T3,1,0,42,Some ,ducks,are,fish,1,m,FALSE,612,22,8,5,8,4,1,69,23,25,27,37,37,low,ducks,fish,15,ducks_15_15,1
12,T4,1,1,43,All,coconuts,are,fruits,1,c,TRUE,497,22,8,5,8,4,1,69,23,25,27,37,37,low,coconuts,fruits,10,coconuts_10_10,1
12,T5,1,0,44,All,reptiles,are,iguanas,0,m,TRUE,1068,22,8,5,8,4,1,69,23,25,27,37,37,low,iguanas,reptiles,25,iguanas_25_25,0
12,T6,1,0,45,All,stingrays,are,birds,1,m,FALSE,579,22,8,5,8,4,1,69,23,25,27,37,37,low,stingrays,birds,50,stingrays_50_50,1
12,T1,1,0,46,Some ,daisies,are,flowers,0,m,TRUE,483,22,8,5,8,4,1,69,23,25,27,37,37,low,daisies,flowers,12,daisies_12_12,1
12,T2,1,1,47,Some ,insects,are,bees,1,c,TRUE,774,22,8,5,8,4,1,69,23,25,27,37,37,low,bees,insects,5,bees_5_5,1
12,T3,1,0,48,Some ,flamingoes,are,fish,1,m,FALSE,688,22,8,5,8,4,1,69,23,25,27,37,37,low,flamingoes,fish,19,flamingoes_19_19,1
12,T4,1,1,49,All,bananas,are,fruits,1,c,TRUE,662,22,8,5,8,4,1,69,23,25,27,37,37,low,bananas,fruits,4,bananas_4_4,1
12,T5,1,0,50,All,reptiles,are,frogs,0,m,TRUE,1108,22,8,5,8,4,1,69,23,25,27,37,37,low,frogs,reptiles,20,frogs_20_20,0
12,T6,1,0,51,All,tuna,are,birds,1,m,FALSE,716,22,8,5,8,4,1,69,23,25,27,37,37,low,tuna,birds,54,tuna_54_54,1
12,T1,1,0,52,Some ,rafflesias,are,flowers,0,m,TRUE,415,22,8,5,8,4,1,69,23,25,27,37,37,low,rafflesias,flowers,43,rafflesias_43_43,1
12,T2,1,1,53,Some ,insects,are,dragonflies,1,c,TRUE,699,22,8,5,8,4,1,69,23,25,27,37,37,low,dragonflies,insects,14,dragonflies_14_14,1
12,T3,1,0,54,Some ,peacocks,are,fish,1,m,FALSE,499,22,8,5,8,4,1,69,23,25,27,37,37,low,peacocks,fish,38,peacocks_38_38,1
12,T4,1,1,55,All,mangos,are,fruits,1,c,TRUE,479,22,8,5,8,4,1,69,23,25,27,37,37,low,mangos,fruits,31,mangos_31_31,1
12,T5,1,0,56,All,reptiles,are,alligators,0,m,TRUE,625,22,8,5,8,4,1,69,23,25,27,37,37,low,alligators,reptiles,1,alligators_1_1,0
12,T6,1,0,57,All,sardines,are,birds,1,m,FALSE,522,22,8,5,8,4,1,69,23,25,27,37,37,low,sardines,birds,46,sardines_46_46,1
13,T1,2,0,2,Some ,butterflies,are,insects,0,m,TRUE,1268,24,7,7,5,3,6,56,22,29,26,17,31,high,butterflies,insects,6,butterflies_6_6,1
13,T2,2,1,3,Some ,birds,are,eagles,1,c,TRUE,1215,24,7,7,5,3,6,56,22,29,26,17,31,high,eagles,birds,17,eagles_17_17,1
13,T3,2,0,4,Some ,pineapples,are,flowers,1,m,FALSE,764,24,7,7,5,3,6,56,22,29,26,17,31,high,pineapples,flowers,40,pineapples_40_40,1
13,T4,2,1,5,All,snakes,are,reptiles,1,c,TRUE,675,24,7,7,5,3,6,56,22,29,26,17,31,high,snakes,reptiles,48,snakes_48_48,1
13,T5,2,0,6,All,fish,are,sharks,1,m,FALSE,793,24,7,7,5,3,6,56,22,29,26,17,31,high,sharks,fish,47,sharks_47_47,1
13,T6,2,0,7,All,lavender,are,fruits,1,m,FALSE,813,24,7,7,5,3,6,56,22,29,26,17,31,high,lavender,fruits,28,lavender_28_28,1
13,T1,2,0,8,Some ,mosquitoes,are,insects,0,m,TRUE,821,24,7,7,5,3,6,56,22,29,26,17,31,high,mosquitoes,insects,32,mosquitoes_32_32,1
13,T2,2,1,9,Some ,birds,are,owls,1,c,TRUE,958,24,7,7,5,3,6,56,22,29,26,17,31,high,owls,birds,35,owls_35_35,1
13,T3,2,0,10,Some ,strawberries,are,flowers,1,m,FALSE,676,24,7,7,5,3,6,56,22,29,26,17,31,high,strawberries,flowers,51,strawberries_51_51,1
13,T4,2,1,11,All,dinosaurs,are,reptiles,1,c,TRUE,551,24,7,7,5,3,6,56,22,29,26,17,31,high,dinosaurs,reptiles,13,dinosaurs_13_13,1
13,T5,2,0,12,All,fish,are,salmons,1,m,FALSE,865,24,7,7,5,3,6,56,22,29,26,17,31,high,salmons,fish,45,salmons_45_45,1
13,T6,2,0,13,All,lilies,are,fruits,1,m,FALSE,705,24,7,7,5,3,6,56,22,29,26,17,31,high,lilies,fruits,29,lilies_29_29,1
13,T1,2,0,14,Some ,cockroaches,are,insects,0,m,TRUE,764,24,7,7,5,3,6,56,22,29,26,17,31,high,cockroaches,insects,9,cockroaches_9_9,1
13,T2,2,1,15,Some ,birds,are,penguins,1,c,TRUE,1206,24,7,7,5,3,6,56,22,29,26,17,31,high,penguins,birds,39,penguins_39_39,1
13,T3,2,0,16,Some ,watermelons,are,flowers,1,m,FALSE,652,24,7,7,5,3,6,56,22,29,26,17,31,high,watermelons,flowers,55,watermelons_55_55,1
13,T4,2,1,17,All,chameleons,are,reptiles,1,c,TRUE,771,24,7,7,5,3,6,56,22,29,26,17,31,high,chameleons,reptiles,8,chameleons_8_8,1
13,T5,2,0,18,All,fish,are,anchovies,1,m,FALSE,1004,24,7,7,5,3,6,56,22,29,26,17,31,high,anchovies,fish,2,anchovies_2_2,1
13,T6,2,0,19,All,hibiscuses,are,fruits,1,m,FALSE,655,24,7,7,5,3,6,56,22,29,26,17,31,high,hibiscuses,fruits,24,hibiscuses_24_24,1
13,T1,2,0,21,Some ,grasshoppers,are,insects,0,m,TRUE,487,24,7,7,5,3,6,56,22,29,26,17,31,high,grasshoppers,insects,22,grasshoppers_22_22,1
13,T2,2,1,22,Some ,birds,are,parrots,1,c,TRUE,905,24,7,7,5,3,6,56,22,29,26,17,31,high,parrots,birds,37,parrots_37_37,1
13,T3,2,0,23,Some ,papayas,are,flowers,1,m,FALSE,528,24,7,7,5,3,6,56,22,29,26,17,31,high,papayas,flowers,36,papayas_36_36,1
13,T4,2,1,24,All,tortoises,are,reptiles,1,c,TRUE,1033,24,7,7,5,3,6,56,22,29,26,17,31,high,tortoises,reptiles,52,tortoises_52_52,1
13,T5,2,0,25,All,fish,are,eels,1,m,FALSE,599,24,7,7,5,3,6,56,22,29,26,17,31,high,eels,fish,18,eels_18_18,1
13,T6,2,0,26,All,roses,are,fruits,1,m,FALSE,597,24,7,7,5,3,6,56,22,29,26,17,31,high,roses,fruits,44,roses_44_44,1
13,T1,2,0,27,Some ,ants,are,insects,0,m,TRUE,572,24,7,7,5,3,6,56,22,29,26,17,31,high,ants,insects,3,ants_3_3,1
13,T2,2,1,28,Some ,birds,are,sparrows,1,c,TRUE,1133,24,7,7,5,3,6,56,22,29,26,17,31,high,sparrows,birds,49,sparrows_49_49,1
13,T3,2,0,29,Some ,grapes,are,flowers,1,m,FALSE,800,24,7,7,5,3,6,56,22,29,26,17,31,high,grapes,flowers,21,grapes_21_21,1
13,T4,2,1,30,All,lizards,are,reptiles,1,c,TRUE,772,24,7,7,5,3,6,56,22,29,26,17,31,high,lizards,reptiles,30,lizards_30_30,1
13,T5,2,0,31,All,fish,are,guppies,1,m,FALSE,911,24,7,7,5,3,6,56,22,29,26,17,31,high,guppies,fish,23,guppies_23_23,1
13,T6,2,0,32,All,orchids,are,fruits,1,m,FALSE,641,24,7,7,5,3,6,56,22,29,26,17,31,high,orchids,fruits,33,orchids_33_33,1
13,T1,2,0,33,Some ,caterpillars,are,insects,0,m,TRUE,1005,24,7,7,5,3,6,56,22,29,26,17,31,high,caterpillars,insects,7,caterpillars_7_7,1
13,T2,2,1,34,Some ,birds,are,ostriches,1,c,TRUE,746,24,7,7,5,3,6,56,22,29,26,17,31,high,ostriches,birds,34,ostriches_34_34,1
13,T3,2,0,35,Some ,durians,are,flowers,1,m,FALSE,565,24,7,7,5,3,6,56,22,29,26,17,31,high,durians,flowers,16,durians_16_16,1
13,T4,2,1,36,All,crocodiles,are,reptiles,1,c,TRUE,665,24,7,7,5,3,6,56,22,29,26,17,31,high,crocodiles,reptiles,11,crocodiles_11_11,1
13,T5,2,0,37,All,fish,are,piranha ,1,m,FALSE,863,24,7,7,5,3,6,56,22,29,26,17,31,high,piranha ,fish,41,piranha _41_41,1
13,T6,2,0,38,All,jasmines,are,fruits,1,m,FALSE,631,24,7,7,5,3,6,56,22,29,26,17,31,high,jasmines,fruits,26,jasmines_26_26,1
13,T1,2,0,40,Some ,ladybugs,are,insects,1,m,FALSE,910,24,7,7,5,3,6,56,22,29,26,17,31,high,ladybugs,insects,27,ladybugs_27_27,0
13,T2,2,1,41,Some ,birds,are,ducks,1,c,TRUE,1069,24,7,7,5,3,6,56,22,29,26,17,31,high,ducks,birds,15,ducks_15_15,1
13,T3,2,0,42,Some ,coconuts,are,flowers,1,m,FALSE,562,24,7,7,5,3,6,56,22,29,26,17,31,high,coconuts,flowers,10,coconuts_10_10,1
13,T4,2,1,43,All,iguanas,are,reptiles,1,c,TRUE,415,24,7,7,5,3,6,56,22,29,26,17,31,high,iguanas,reptiles,25,iguanas_25_25,1
13,T5,2,0,44,All,fish,are,stingrays,1,m,FALSE,442,24,7,7,5,3,6,56,22,29,26,17,31,high,stingrays,fish,50,stingrays_50_50,1
13,T6,2,0,45,All,tulips,are,fruits,1,m,FALSE,804,24,7,7,5,3,6,56,22,29,26,17,31,high,tulips,fruits,53,tulips_53_53,1
13,T1,2,0,46,Some ,bees,are,insects,1,m,FALSE,763,24,7,7,5,3,6,56,22,29,26,17,31,high,bees,insects,5,bees_5_5,0
13,T2,2,1,47,Some ,birds,are,flamingoes,1,c,TRUE,473,24,7,7,5,3,6,56,22,29,26,17,31,high,flamingoes,birds,19,flamingoes_19_19,1
13,T3,2,0,48,Some ,bananas,are,flowers,1,m,FALSE,345,24,7,7,5,3,6,56,22,29,26,17,31,high,bananas,flowers,4,bananas_4_4,1
13,T4,2,1,49,All,frogs,are,reptiles,1,c,TRUE,548,24,7,7,5,3,6,56,22,29,26,17,31,high,frogs,reptiles,20,frogs_20_20,1
13,T5,2,0,50,All,fish,are,tuna,1,m,FALSE,464,24,7,7,5,3,6,56,22,29,26,17,31,high,tuna,fish,54,tuna_54_54,1
13,T6,2,0,51,All,daisies,are,fruits,1,m,FALSE,520,24,7,7,5,3,6,56,22,29,26,17,31,high,daisies,fruits,12,daisies_12_12,1
13,T1,2,0,52,Some ,dragonflies,are,insects,1,m,FALSE,611,24,7,7,5,3,6,56,22,29,26,17,31,high,dragonflies,insects,14,dragonflies_14_14,0
13,T2,2,1,53,Some ,birds,are,peacocks,1,c,TRUE,507,24,7,7,5,3,6,56,22,29,26,17,31,high,peacocks,birds,38,peacocks_38_38,1
13,T3,2,0,54,Some ,mangos,are,flowers,1,m,FALSE,452,24,7,7,5,3,6,56,22,29,26,17,31,high,mangos,flowers,31,mangos_31_31,1
13,T4,2,1,55,All,alligators,are,reptiles,1,c,TRUE,427,24,7,7,5,3,6,56,22,29,26,17,31,high,alligators,reptiles,1,alligators_1_1,1
13,T5,2,0,56,All,fish,are,sardines,1,m,FALSE,749,24,7,7,5,3,6,56,22,29,26,17,31,high,sardines,fish,46,sardines_46_46,1
13,T6,2,0,57,All,rafflesias,are,fruits,0,m,TRUE,371,24,7,7,5,3,6,56,22,29,26,17,31,high,rafflesias,fruits,43,rafflesias_43_43,0
14,T1,1,0,2,Some ,eagles,are,birds,1,m,FALSE,2975,18,2,3,5,2,4,75,25,34,26,26,40,low,eagles,birds,17,eagles_17_17,0
14,T2,1,1,3,Some ,fruits,are,pineapples,1,c,TRUE,3410,18,2,3,5,2,4,75,25,34,26,26,40,low,pineapples,fruits,40,pineapples_40_40,1
14,T3,1,0,4,Some ,snakes,are,insects,1,m,FALSE,3320,18,2,3,5,2,4,75,25,34,26,26,40,low,snakes,insects,48,snakes_48_48,1
14,T4,1,1,5,All,sharks,are,fish,1,c,TRUE,1693,18,2,3,5,2,4,75,25,34,26,26,40,low,sharks,fish,47,sharks_47_47,1
14,T5,1,0,6,All,flowers,are,lavender,1,m,FALSE,1084,18,2,3,5,2,4,75,25,34,26,26,40,low,lavender,flowers,28,lavender_28_28,1
14,T6,1,0,7,All,butterflies,are,reptiles,1,m,FALSE,1094,18,2,3,5,2,4,75,25,34,26,26,40,low,butterflies,reptiles,6,butterflies_6_6,1
14,T1,1,0,8,Some ,owls,are,birds,1,m,FALSE,3700,18,2,3,5,2,4,75,25,34,26,26,40,low,owls,birds,35,owls_35_35,0
14,T2,1,1,9,Some ,fruits,are,strawberries,1,c,TRUE,4063,18,2,3,5,2,4,75,25,34,26,26,40,low,strawberries,fruits,51,strawberries_51_51,1
14,T3,1,0,10,Some ,dinosaurs,are,insects ,1,m,FALSE,1546,18,2,3,5,2,4,75,25,34,26,26,40,low,dinosaurs,insects ,13,dinosaurs_13_13,1
14,T4,1,1,11,All,salmons,are,fish,1,c,TRUE,1073,18,2,3,5,2,4,75,25,34,26,26,40,low,salmons,fish,45,salmons_45_45,1
14,T5,1,0,12,All,flowers,are,lilies,1,m,FALSE,1528,18,2,3,5,2,4,75,25,34,26,26,40,low,lilies,flowers,29,lilies_29_29,1
14,T6,1,0,13,All,mosquitoes,are,reptiles,1,m,FALSE,1162,18,2,3,5,2,4,75,25,34,26,26,40,low,mosquitoes,reptiles,32,mosquitoes_32_32,1
14,T1,1,0,14,Some ,penguins,are,birds,1,m,FALSE,3655,18,2,3,5,2,4,75,25,34,26,26,40,low,penguins,birds,39,penguins_39_39,0
14,T2,1,1,15,Some ,fruits,are,watermelons,1,c,TRUE,1900,18,2,3,5,2,4,75,25,34,26,26,40,low,watermelons,fruits,55,watermelons_55_55,1
14,T3,1,0,16,Some ,chameleons,are,insects,1,m,FALSE,3065,18,2,3,5,2,4,75,25,34,26,26,40,low,chameleons,insects,8,chameleons_8_8,1
14,T4,1,1,17,All,anchovies,are,fish,1,c,TRUE,1614,18,2,3,5,2,4,75,25,34,26,26,40,low,anchovies,fish,2,anchovies_2_2,1
14,T5,1,0,18,All,flowers,are,hibiscuses,1,m,FALSE,2294,18,2,3,5,2,4,75,25,34,26,26,40,low,hibiscuses,flowers,24,hibiscuses_24_24,1
14,T6,1,0,19,All,cockroaches,are,reptiles,1,m,FALSE,942,18,2,3,5,2,4,75,25,34,26,26,40,low,cockroaches,reptiles,9,cockroaches_9_9,1
14,T1,1,0,21,Some ,parrots,are,birds,1,m,FALSE,1456,18,2,3,5,2,4,75,25,34,26,26,40,low,parrots,birds,37,parrots_37_37,0
14,T2,1,1,22,Some ,fruits,are,papayas,1,c,TRUE,1832,18,2,3,5,2,4,75,25,34,26,26,40,low,papayas,fruits,36,papayas_36_36,1
14,T3,1,0,23,Some ,tortoises,are,insects,1,m,FALSE,909,18,2,3,5,2,4,75,25,34,26,26,40,low,tortoises,insects,52,tortoises_52_52,1
14,T4,1,1,24,All,eels,are,fish,1,c,TRUE,6614,18,2,3,5,2,4,75,25,34,26,26,40,low,eels,fish,18,eels_18_18,1
14,T5,1,0,25,All,flowers,are,roses,1,m,FALSE,1359,18,2,3,5,2,4,75,25,34,26,26,40,low,roses,flowers,44,roses_44_44,1
14,T6,1,0,26,All,grasshoppers,are,reptiles,1,m,FALSE,1270,18,2,3,5,2,4,75,25,34,26,26,40,low,grasshoppers,reptiles,22,grasshoppers_22_22,1
14,T1,1,0,27,Some ,sparrows,are,birds,0,m,TRUE,1559,18,2,3,5,2,4,75,25,34,26,26,40,low,sparrows,birds,49,sparrows_49_49,1
14,T2,1,1,28,Some ,fruits,are,grapes,1,c,TRUE,1387,18,2,3,5,2,4,75,25,34,26,26,40,low,grapes,fruits,21,grapes_21_21,1
14,T3,1,0,29,Some ,lizards,are,insects,1,m,FALSE,2234,18,2,3,5,2,4,75,25,34,26,26,40,low,lizards,insects,30,lizards_30_30,1
14,T4,1,1,30,All,guppies,are,fish,1,c,TRUE,1141,18,2,3,5,2,4,75,25,34,26,26,40,low,guppies,fish,23,guppies_23_23,1
14,T5,1,0,31,All,flowers,are,orchids,1,m,FALSE,1678,18,2,3,5,2,4,75,25,34,26,26,40,low,orchids,flowers,33,orchids_33_33,1
14,T6,1,0,32,All,ants,are,reptiles,1,m,FALSE,1251,18,2,3,5,2,4,75,25,34,26,26,40,low,ants,reptiles,3,ants_3_3,1
14,T1,1,0,33,Some ,ostriches,are,birds,1,m,FALSE,2930,18,2,3,5,2,4,75,25,34,26,26,40,low,ostriches,birds,34,ostriches_34_34,0
14,T2,1,1,34,Some ,fruits,are,durians,1,c,TRUE,4329,18,2,3,5,2,4,75,25,34,26,26,40,low,durians,fruits,16,durians_16_16,1
14,T3,1,0,35,Some ,crocodiles,are,insects,1,m,FALSE,3006,18,2,3,5,2,4,75,25,34,26,26,40,low,crocodiles,insects,11,crocodiles_11_11,1
14,T4,1,1,36,All,piranha ,are,fish,1,c,TRUE,1167,18,2,3,5,2,4,75,25,34,26,26,40,low,piranha ,fish,41,piranha _41_41,1
14,T5,1,0,37,All,flowers,are,jasmines,1,m,FALSE,1223,18,2,3,5,2,4,75,25,34,26,26,40,low,jasmines,flowers,26,jasmines_26_26,1
14,T6,1,0,38,All,caterpillars,are,reptiles,1,m,FALSE,1552,18,2,3,5,2,4,75,25,34,26,26,40,low,caterpillars,reptiles,7,caterpillars_7_7,1
14,T1,1,0,40,Some ,ducks,are,birds,1,m,FALSE,3262,18,2,3,5,2,4,75,25,34,26,26,40,low,ducks,birds,15,ducks_15_15,0
14,T2,1,1,41,Some ,fruits,are,coconuts,1,c,TRUE,2899,18,2,3,5,2,4,75,25,34,26,26,40,low,coconuts,fruits,10,coconuts_10_10,1
14,T3,1,0,42,Some ,iguanas,are,insects,1,m,FALSE,2064,18,2,3,5,2,4,75,25,34,26,26,40,low,iguanas,insects,25,iguanas_25_25,1
14,T4,1,1,43,All,stingrays,are,fish,1,c,TRUE,1064,18,2,3,5,2,4,75,25,34,26,26,40,low,stingrays,fish,50,stingrays_50_50,1
14,T5,1,0,44,All,flowers,are,tulips,1,m,FALSE,1390,18,2,3,5,2,4,75,25,34,26,26,40,low,tulips,flowers,53,tulips_53_53,1
14,T6,1,0,45,All,ladybugs,are,reptiles,1,m,FALSE,1184,18,2,3,5,2,4,75,25,34,26,26,40,low,ladybugs,reptiles,27,ladybugs_27_27,1
14,T1,1,0,46,Some ,flamingoes,are,birds,1,m,FALSE,3733,18,2,3,5,2,4,75,25,34,26,26,40,low,flamingoes,birds,19,flamingoes_19_19,0
14,T2,1,1,47,Some ,fruits,are,bananas,1,c,TRUE,1426,18,2,3,5,2,4,75,25,34,26,26,40,low,bananas,fruits,4,bananas_4_4,1
14,T3,1,0,48,Some ,frogs,are,insects,1,m,FALSE,1708,18,2,3,5,2,4,75,25,34,26,26,40,low,frogs,insects,20,frogs_20_20,1
14,T4,1,1,49,All,tuna,are,fish,1,c,TRUE,665,18,2,3,5,2,4,75,25,34,26,26,40,low,tuna,fish,54,tuna_54_54,1
14,T5,1,0,50,All,flowers,are,daisies,1,m,FALSE,2061,18,2,3,5,2,4,75,25,34,26,26,40,low,daisies,flowers,12,daisies_12_12,1
14,T6,1,0,51,All,bees,are,reptiles,1,m,FALSE,923,18,2,3,5,2,4,75,25,34,26,26,40,low,bees,reptiles,5,bees_5_5,1
14,T1,1,0,52,Some ,peacocks,are,birds,1,m,FALSE,1232,18,2,3,5,2,4,75,25,34,26,26,40,low,peacocks,birds,38,peacocks_38_38,0
14,T2,1,1,53,Some ,fruits,are,mangos,1,c,TRUE,1117,18,2,3,5,2,4,75,25,34,26,26,40,low,mangos,fruits,31,mangos_31_31,1
14,T3,1,0,54,Some ,alligators,are,insects,1,m,FALSE,845,18,2,3,5,2,4,75,25,34,26,26,40,low,alligators,insects,1,alligators_1_1,1
14,T4,1,1,55,All,sardines,are,fish,1,c,TRUE,1205,18,2,3,5,2,4,75,25,34,26,26,40,low,sardines,fish,46,sardines_46_46,1
14,T5,1,0,56,All,flowers,are,rafflesias,1,m,FALSE,972,18,2,3,5,2,4,75,25,34,26,26,40,low,rafflesias,flowers,43,rafflesias_43_43,1
14,T6,1,0,57,All,dragonflies,are,reptiles,1,m,FALSE,1645,18,2,3,5,2,4,75,25,34,26,26,40,low,dragonflies,reptiles,14,dragonflies_14_14,1
15,T1,1,0,2,Some ,pineapples,are,fruits,1,m,FALSE,1767,18,5,8,8,4,3,77,27,24,20,24,27,low,pineapples,fruits,40,pineapples_40_40,0
15,T2,1,1,3,Some ,reptiles,are,snakes,0,c,FALSE,1921,18,5,8,8,4,3,77,27,24,20,24,27,low,snakes,reptiles,48,snakes_48_48,0
15,T3,1,0,4,Some ,sharks,are,birds,1,m,FALSE,1358,18,5,8,8,4,3,77,27,24,20,24,27,low,sharks,birds,47,sharks_47_47,1
15,T4,1,1,5,All,lavender,are,flowers,1,c,TRUE,1381,18,5,8,8,4,3,77,27,24,20,24,27,low,lavender,flowers,28,lavender_28_28,1
15,T5,1,0,6,All,insects,are,butterflies,0,m,TRUE,1879,18,5,8,8,4,3,77,27,24,20,24,27,low,butterflies,insects,6,butterflies_6_6,0
15,T6,1,0,7,All,eagles,are,fish,1,m,FALSE,1615,18,5,8,8,4,3,77,27,24,20,24,27,low,eagles,fish,17,eagles_17_17,1
15,T1,1,0,8,Some ,strawberries,are,fruits,1,m,FALSE,3999,18,5,8,8,4,3,77,27,24,20,24,27,low,strawberries,fruits,51,strawberries_51_51,0
15,T2,1,1,9,Some ,reptiles,are,dinosaurs,0,c,FALSE,2876,18,5,8,8,4,3,77,27,24,20,24,27,low,dinosaurs,reptiles,13,dinosaurs_13_13,0
15,T3,1,0,10,Some ,salmons,are,birds,1,m,FALSE,3534,18,5,8,8,4,3,77,27,24,20,24,27,low,salmons,birds,45,salmons_45_45,1
15,T4,1,1,11,All,lilies,are,flowers,1,c,TRUE,1052,18,5,8,8,4,3,77,27,24,20,24,27,low,lilies,flowers,29,lilies_29_29,1
15,T5,1,0,12,All,insects,are,mosquitoes,0,m,TRUE,3112,18,5,8,8,4,3,77,27,24,20,24,27,low,mosquitoes,insects,32,mosquitoes_32_32,0
15,T6,1,0,13,All,owls,are,fish,1,m,FALSE,1250,18,5,8,8,4,3,77,27,24,20,24,27,low,owls,fish,35,owls_35_35,1
15,T1,1,0,14,Some ,watermelons,are,fruits,1,m,FALSE,4972,18,5,8,8,4,3,77,27,24,20,24,27,low,watermelons,fruits,55,watermelons_55_55,0
15,T2,1,1,15,Some ,reptiles,are,chameleons,0,c,FALSE,3494,18,5,8,8,4,3,77,27,24,20,24,27,low,chameleons,reptiles,8,chameleons_8_8,0
15,T3,1,0,16,Some ,anchovies,are,birds,1,m,FALSE,974,18,5,8,8,4,3,77,27,24,20,24,27,low,anchovies,birds,2,anchovies_2_2,1
15,T4,1,1,17,All,hibiscuses,are,flowers,1,c,TRUE,1334,18,5,8,8,4,3,77,27,24,20,24,27,low,hibiscuses,flowers,24,hibiscuses_24_24,1
15,T5,1,0,18,All,insects,are,cockroaches,1,m,FALSE,3643,18,5,8,8,4,3,77,27,24,20,24,27,low,cockroaches,insects,9,cockroaches_9_9,1
15,T6,1,0,19,All,penguins,are,fish,1,m,FALSE,3140,18,5,8,8,4,3,77,27,24,20,24,27,low,penguins,fish,39,penguins_39_39,1
15,T1,1,0,21,Some ,papayas,are,fruits,0,m,TRUE,4668,18,5,8,8,4,3,77,27,24,20,24,27,low,papayas,fruits,36,papayas_36_36,1
15,T2,1,1,22,Some ,reptiles,are,tortoises,0,c,FALSE,1617,18,5,8,8,4,3,77,27,24,20,24,27,low,tortoises,reptiles,52,tortoises_52_52,0
15,T3,1,0,23,Some ,eels,are,birds,1,m,FALSE,1239,18,5,8,8,4,3,77,27,24,20,24,27,low,eels,birds,18,eels_18_18,1
15,T4,1,1,24,All,roses,are,flowers,1,c,TRUE,2145,18,5,8,8,4,3,77,27,24,20,24,27,low,roses,flowers,44,roses_44_44,1
15,T5,1,0,25,All,insects,are,grasshoppers,1,m,FALSE,4262,18,5,8,8,4,3,77,27,24,20,24,27,low,grasshoppers,insects,22,grasshoppers_22_22,1
15,T6,1,0,26,All,parrots,are,fish,1,m,FALSE,1047,18,5,8,8,4,3,77,27,24,20,24,27,low,parrots,fish,37,parrots_37_37,1
15,T1,1,0,27,Some ,grapes,are,fruits,1,m,FALSE,961,18,5,8,8,4,3,77,27,24,20,24,27,low,grapes,fruits,21,grapes_21_21,0
15,T2,1,1,28,Some ,reptiles,are,lizards,1,c,TRUE,6494,18,5,8,8,4,3,77,27,24,20,24,27,low,lizards,reptiles,30,lizards_30_30,1
15,T3,1,0,29,Some ,guppies,are,birds,1,m,FALSE,974,18,5,8,8,4,3,77,27,24,20,24,27,low,guppies,birds,23,guppies_23_23,1
15,T4,1,1,30,All,orchids,are,flowers,1,c,TRUE,2326,18,5,8,8,4,3,77,27,24,20,24,27,low,orchids,flowers,33,orchids_33_33,1
15,T5,1,0,31,All,insects,are,ants,1,m,FALSE,2006,18,5,8,8,4,3,77,27,24,20,24,27,low,ants,insects,3,ants_3_3,1
15,T6,1,0,32,All,sparrows,are,fish,1,m,FALSE,1594,18,5,8,8,4,3,77,27,24,20,24,27,low,sparrows,fish,49,sparrows_49_49,1
15,T1,1,0,33,Some ,durians,are,fruits,1,m,FALSE,4530,18,5,8,8,4,3,77,27,24,20,24,27,low,durians,fruits,16,durians_16_16,0
15,T2,1,1,34,Some ,reptiles,are,crocodiles,1,c,TRUE,7861,18,5,8,8,4,3,77,27,24,20,24,27,low,crocodiles,reptiles,11,crocodiles_11_11,1
15,T3,1,0,35,Some ,piranha,are,birds,1,m,FALSE,959,18,5,8,8,4,3,77,27,24,20,24,27,low,piranha,birds,41,piranha_41_41,1
15,T4,1,1,36,All,jasmines,are,flowers,1,c,TRUE,1255,18,5,8,8,4,3,77,27,24,20,24,27,low,jasmines,flowers,26,jasmines_26_26,1
15,T5,1,0,37,All,insects,are,caterpillars,1,m,FALSE,3407,18,5,8,8,4,3,77,27,24,20,24,27,low,caterpillars,insects,7,caterpillars_7_7,1
15,T6,1,0,38,All,ostriches,are,fish,1,m,FALSE,1977,18,5,8,8,4,3,77,27,24,20,24,27,low,ostriches,fish,34,ostriches_34_34,1
15,T1,1,0,40,Some ,coconuts,are,fruits,1,m,FALSE,3027,18,5,8,8,4,3,77,27,24,20,24,27,low,coconuts,fruits,10,coconuts_10_10,0
15,T2,1,1,41,Some ,reptiles,are,iguanas,1,c,TRUE,4970,18,5,8,8,4,3,77,27,24,20,24,27,low,iguanas,reptiles,25,iguanas_25_25,1
15,T3,1,0,42,Some ,stingrays,are,birds,1,m,FALSE,780,18,5,8,8,4,3,77,27,24,20,24,27,low,stingrays,birds,50,stingrays_50_50,1
15,T4,1,1,43,All,tulips,are,flowers,1,c,TRUE,3206,18,5,8,8,4,3,77,27,24,20,24,27,low,tulips,flowers,53,tulips_53_53,1
15,T5,1,0,44,All,insects,are,ladybugs,1,m,FALSE,2410,18,5,8,8,4,3,77,27,24,20,24,27,low,ladybugs,insects,27,ladybugs_27_27,1
15,T6,1,0,45,All,ducks,are,fish,1,m,FALSE,1935,18,5,8,8,4,3,77,27,24,20,24,27,low,ducks,fish,15,ducks_15_15,1
15,T1,1,0,46,Some ,bananas,are,fruits,1,m,FALSE,1824,18,5,8,8,4,3,77,27,24,20,24,27,low,bananas,fruits,4,bananas_4_4,0
15,T2,1,1,47,Some ,reptiles,are,frogs,0,c,FALSE,2109,18,5,8,8,4,3,77,27,24,20,24,27,low,frogs,reptiles,20,frogs_20_20,0
15,T3,1,0,48,Some ,tuna,are,birds,1,m,FALSE,2908,18,5,8,8,4,3,77,27,24,20,24,27,low,tuna,birds,54,tuna_54_54,1
15,T4,1,1,49,All,daisies,are,flowers,1,c,TRUE,797,18,5,8,8,4,3,77,27,24,20,24,27,low,daisies,flowers,12,daisies_12_12,1
15,T5,1,0,50,All,insects,are,bees,1,m,FALSE,1583,18,5,8,8,4,3,77,27,24,20,24,27,low,bees,insects,5,bees_5_5,1
15,T6,1,0,51,All,flamingoes,are,fish,1,m,FALSE,2529,18,5,8,8,4,3,77,27,24,20,24,27,low,flamingoes,fish,19,flamingoes_19_19,1
15,T1,1,0,52,Some ,mangos,are,fruits,0,m,TRUE,2969,18,5,8,8,4,3,77,27,24,20,24,27,low,mangos,fruits,31,mangos_31_31,1
15,T2,1,1,53,Some ,reptiles,are,alligators,0,c,FALSE,6014,18,5,8,8,4,3,77,27,24,20,24,27,low,alligators,reptiles,1,alligators_1_1,0
15,T3,1,0,54,Some ,sardines,are,birds,1,m,FALSE,2044,18,5,8,8,4,3,77,27,24,20,24,27,low,sardines,birds,46,sardines_46_46,1
15,T4,1,1,55,All,rafflesias,are,flowers,1,c,TRUE,4508,18,5,8,8,4,3,77,27,24,20,24,27,low,rafflesias,flowers,43,rafflesias_43_43,1
15,T5,1,0,56,All,insects,are,dragonflies,1,m,FALSE,4038,18,5,8,8,4,3,77,27,24,20,24,27,low,dragonflies,insects,14,dragonflies_14_14,1
15,T6,1,0,57,All,peacocks,are,fish,1,m,FALSE,914,18,5,8,8,4,3,77,27,24,20,24,27,low,peacocks,fish,38,peacocks_38_38,1
16,T1,1,0,2,Some ,snakes,are,reptiles,1,m,FALSE,3706,22,5,6,6,3,5,54,21,32,34,25,43,low,snakes,reptiles,48,snakes_48_48,0
16,T2,1,1,3,Some ,fish,are,sharks,1,c,TRUE,1068,22,5,6,6,3,5,54,21,32,34,25,43,low,sharks,fish,47,sharks_47_47,1
16,T3,1,0,4,Some ,lavender,are,fruits,1,m,FALSE,2129,22,5,6,6,3,5,54,21,32,34,25,43,low,lavender,fruits,28,lavender_28_28,1
16,T4,1,1,5,All,butterflies,are,insects,1,c,TRUE,839,22,5,6,6,3,5,54,21,32,34,25,43,low,butterflies,insects,6,butterflies_6_6,1
16,T5,1,0,6,All,birds,are,eagles,1,m,FALSE,1110,22,5,6,6,3,5,54,21,32,34,25,43,low,eagles,birds,17,eagles_17_17,1
16,T6,1,0,7,All,pineapples,are,flowers,1,m,FALSE,2643,22,5,6,6,3,5,54,21,32,34,25,43,low,pineapples,flowers,40,pineapples_40_40,1
16,T1,1,0,8,Some ,dinosaurs,are,reptiles,0,m,TRUE,1304,22,5,6,6,3,5,54,21,32,34,25,43,low,dinosaurs,reptiles,13,dinosaurs_13_13,1
16,T2,1,1,9,Some ,fish,are,salmons,1,c,TRUE,948,22,5,6,6,3,5,54,21,32,34,25,43,low,salmons,fish,45,salmons_45_45,1
16,T3,1,0,10,Some ,lilies,are,fruits,0,m,TRUE,2433,22,5,6,6,3,5,54,21,32,34,25,43,low,lilies,fruits,29,lilies_29_29,0
16,T4,1,1,11,All,mosquitoes,are,insects,1,c,TRUE,1957,22,5,6,6,3,5,54,21,32,34,25,43,low,mosquitoes,insects,32,mosquitoes_32_32,1
16,T5,1,0,12,All,birds,are,owls,1,m,FALSE,4077,22,5,6,6,3,5,54,21,32,34,25,43,low,owls,birds,35,owls_35_35,1
16,T6,1,0,13,All,strawberries,are,flowers,1,m,FALSE,2869,22,5,6,6,3,5,54,21,32,34,25,43,low,strawberries,flowers,51,strawberries_51_51,1
16,T1,1,0,14,Some ,chameleons,are,reptiles,0,m,TRUE,1117,22,5,6,6,3,5,54,21,32,34,25,43,low,chameleons,reptiles,8,chameleons_8_8,1
16,T2,1,1,15,Some ,fish,are,anchovies,1,c,TRUE,998,22,5,6,6,3,5,54,21,32,34,25,43,low,anchovies,fish,2,anchovies_2_2,1
16,T3,1,0,16,Some ,hibiscuses,are,fruits,1,m,FALSE,1145,22,5,6,6,3,5,54,21,32,34,25,43,low,hibiscuses,fruits,24,hibiscuses_24_24,1
16,T4,1,1,17,All,cockroaches,are,insects,1,c,TRUE,771,22,5,6,6,3,5,54,21,32,34,25,43,low,cockroaches,insects,9,cockroaches_9_9,1
16,T5,1,0,18,All,birds,are,penguins,0,m,TRUE,1418,22,5,6,6,3,5,54,21,32,34,25,43,low,penguins,birds,39,penguins_39_39,0
16,T6,1,0,19,All,watermelons,are,flowers,1,m,FALSE,633,22,5,6,6,3,5,54,21,32,34,25,43,low,watermelons,flowers,55,watermelons_55_55,1
16,T1,1,0,21,Some ,tortoises,are,reptiles,1,m,FALSE,1205,22,5,6,6,3,5,54,21,32,34,25,43,low,tortoises,reptiles,52,tortoises_52_52,0
16,T2,1,1,22,Some ,fish,are,eels,1,c,TRUE,2676,22,5,6,6,3,5,54,21,32,34,25,43,low,eels,fish,18,eels_18_18,1
16,T3,1,0,23,Some ,roses,are,fruits,1,m,FALSE,875,22,5,6,6,3,5,54,21,32,34,25,43,low,roses,fruits,44,roses_44_44,1
16,T4,1,1,24,All,grasshoppers,are,insects,1,c,TRUE,705,22,5,6,6,3,5,54,21,32,34,25,43,low,grasshoppers,insects,22,grasshoppers_22_22,1
16,T5,1,0,25,All,birds,are,parrots,0,m,TRUE,992,22,5,6,6,3,5,54,21,32,34,25,43,low,parrots,birds,37,parrots_37_37,0
16,T6,1,0,26,All,papayas,are,flowers,1,m,FALSE,733,22,5,6,6,3,5,54,21,32,34,25,43,low,papayas,flowers,36,papayas_36_36,1
16,T1,1,0,27,Some ,lizards,are,reptiles,0,m,TRUE,759,22,5,6,6,3,5,54,21,32,34,25,43,low,lizards,reptiles,30,lizards_30_30,1
16,T2,1,1,28,Some ,fish,are,guppies,1,c,TRUE,1158,22,5,6,6,3,5,54,21,32,34,25,43,low,guppies,fish,23,guppies_23_23,1
16,T3,1,0,29,Some ,orchids,are,fruits,1,m,FALSE,2809,22,5,6,6,3,5,54,21,32,34,25,43,low,orchids,fruits,33,orchids_33_33,1
16,T4,1,1,30,All,ants,are,insects,1,c,TRUE,551,22,5,6,6,3,5,54,21,32,34,25,43,low,ants,insects,3,ants_3_3,1
16,T5,1,0,31,All,birds,are,sparrows,0,m,TRUE,920,22,5,6,6,3,5,54,21,32,34,25,43,low,sparrows,birds,49,sparrows_49_49,0
16,T6,1,0,32,All,grapes,are,flowers,1,m,FALSE,2138,22,5,6,6,3,5,54,21,32,34,25,43,low,grapes,flowers,21,grapes_21_21,1
16,T1,1,0,33,Some ,crocodiles,are,reptiles,0,m,TRUE,461,22,5,6,6,3,5,54,21,32,34,25,43,low,crocodiles,reptiles,11,crocodiles_11_11,1
16,T2,1,1,34,Some ,fish,are,piranha,1,c,TRUE,904,22,5,6,6,3,5,54,21,32,34,25,43,low,piranha,fish,41,piranha_41_41,1
16,T3,1,0,35,Some ,jasmines,are,fruits,1,m,FALSE,833,22,5,6,6,3,5,54,21,32,34,25,43,low,jasmines,fruits,26,jasmines_26_26,1
16,T4,1,1,36,All,caterpillars,are,insects,1,c,TRUE,1758,22,5,6,6,3,5,54,21,32,34,25,43,low,caterpillars,insects,7,caterpillars_7_7,1
16,T5,1,0,37,All,birds,are,ostriches,0,m,TRUE,1389,22,5,6,6,3,5,54,21,32,34,25,43,low,ostriches,birds,34,ostriches_34_34,0
16,T6,1,0,38,All,durians,are,flowers,1,m,FALSE,572,22,5,6,6,3,5,54,21,32,34,25,43,low,durians,flowers,16,durians_16_16,1
16,T1,1,0,40,Some ,iguanas,are,reptiles,0,m,TRUE,658,22,5,6,6,3,5,54,21,32,34,25,43,low,iguanas,reptiles,25,iguanas_25_25,1
16,T2,1,1,41,Some ,fish,are,stingrays,1,c,TRUE,1025,22,5,6,6,3,5,54,21,32,34,25,43,low,stingrays,fish,50,stingrays_50_50,1
16,T3,1,0,42,Some ,tulips,are,fruits,1,m,FALSE,624,22,5,6,6,3,5,54,21,32,34,25,43,low,tulips,fruits,53,tulips_53_53,1
16,T4,1,1,43,All,ladybugs,are,insects,1,c,TRUE,559,22,5,6,6,3,5,54,21,32,34,25,43,low,ladybugs,insects,27,ladybugs_27_27,1
16,T5,1,0,44,All,birds,are,ducks,0,m,TRUE,1331,22,5,6,6,3,5,54,21,32,34,25,43,low,ducks,birds,15,ducks_15_15,0
16,T6,1,0,45,All,coconuts,are,flowers,1,m,FALSE,582,22,5,6,6,3,5,54,21,32,34,25,43,low,coconuts,flowers,10,coconuts_10_10,1
16,T1,1,0,46,Some ,frogs,are,reptiles,0,m,TRUE,1457,22,5,6,6,3,5,54,21,32,34,25,43,low,frogs,reptiles,20,frogs_20_20,1
16,T2,1,1,47,Some ,fish,are,tuna,1,c,TRUE,725,22,5,6,6,3,5,54,21,32,34,25,43,low,tuna,fish,54,tuna_54_54,1
16,T3,1,0,48,Some ,daisies,are,fruits,1,m,FALSE,726,22,5,6,6,3,5,54,21,32,34,25,43,low,daisies,fruits,12,daisies_12_12,1
16,T4,1,1,49,All,bees,are,insects,1,c,TRUE,965,22,5,6,6,3,5,54,21,32,34,25,43,low,bees,insects,5,bees_5_5,1
16,T5,1,0,50,All,birds,are,flamingoes,0,m,TRUE,1553,22,5,6,6,3,5,54,21,32,34,25,43,low,flamingoes,birds,19,flamingoes_19_19,0
16,T6,1,0,51,All,bananas,are,flowers,1,m,FALSE,567,22,5,6,6,3,5,54,21,32,34,25,43,low,bananas,flowers,4,bananas_4_4,1
16,T1,1,0,52,Some ,alligators,are,reptiles,0,m,TRUE,725,22,5,6,6,3,5,54,21,32,34,25,43,low,alligators,reptiles,1,alligators_1_1,1
16,T2,1,1,53,Some ,fish,are,sardines,1,c,TRUE,659,22,5,6,6,3,5,54,21,32,34,25,43,low,sardines,fish,46,sardines_46_46,1
16,T3,1,0,54,Some ,rafflesias,are,fruits,1,m,FALSE,618,22,5,6,6,3,5,54,21,32,34,25,43,low,rafflesias,fruits,43,rafflesias_43_43,1
16,T4,1,1,55,All,dragonflies,are,insects,1,c,TRUE,510,22,5,6,6,3,5,54,21,32,34,25,43,low,dragonflies,insects,14,dragonflies_14_14,1
16,T5,1,0,56,All,birds,are,peacocks,0,m,TRUE,1140,22,5,6,6,3,5,54,21,32,34,25,43,low,peacocks,birds,38,peacocks_38_38,0
16,T6,1,0,57,All,mangos,are,flowers,1,m,FALSE,635,22,5,6,6,3,5,54,21,32,34,25,43,low,mangos,flowers,31,mangos_31_31,1
17,T1,1,0,2,Some ,sharks,are,fish,0,m,TRUE,1470,22,1,5,7,3,1,67,20,36,27,33,41,low,sharks,fish,47,sharks_47_47,1
17,T2,1,1,3,Some ,flowers,are,lavender,1,c,TRUE,1622,22,1,5,7,3,1,67,20,36,27,33,41,low,lavender,flowers,28,lavender_28_28,1
17,T3,1,0,4,Some ,butterflies,are,reptiles,1,m,FALSE,1017,22,1,5,7,3,1,67,20,36,27,33,41,low,butterflies,reptiles,6,butterflies_6_6,1
17,T4,1,1,5,All,eagles,are,birds,1,c,TRUE,752,22,1,5,7,3,1,67,20,36,27,33,41,low,eagles,birds,17,eagles_17_17,1
17,T5,1,0,6,All,fruits,are,pineapples,0,m,TRUE,721,22,1,5,7,3,1,67,20,36,27,33,41,low,pineapples,fruits,40,pineapples_40_40,0
17,T6,1,0,7,All,snakes,are,insects,1,m,FALSE,1883,22,1,5,7,3,1,67,20,36,27,33,41,low,snakes,insects,48,snakes_48_48,1
17,T1,1,0,8,Some ,salmons,are,fish,0,m,TRUE,998,22,1,5,7,3,1,67,20,36,27,33,41,low,salmons,fish,45,salmons_45_45,1
17,T2,1,1,9,Some ,flowers,are,lilies,1,c,TRUE,966,22,1,5,7,3,1,67,20,36,27,33,41,low,lilies,flowers,29,lilies_29_29,1
17,T3,1,0,10,Some ,mosquitoes,are,reptiles,1,m,FALSE,1036,22,1,5,7,3,1,67,20,36,27,33,41,low,mosquitoes,reptiles,32,mosquitoes_32_32,1
17,T4,1,1,11,All,owls,are,birds,1,c,TRUE,2000,22,1,5,7,3,1,67,20,36,27,33,41,low,owls,birds,35,owls_35_35,1
17,T5,1,0,12,All,fruits,are,strawberries,1,m,FALSE,1037,22,1,5,7,3,1,67,20,36,27,33,41,low,strawberries,fruits,51,strawberries_51_51,1
17,T6,1,0,13,All,dinosaurs,are,insects,1,m,FALSE,1569,22,1,5,7,3,1,67,20,36,27,33,41,low,dinosaurs,insects,13,dinosaurs_13_13,1
17,T1,1,0,14,Some ,anchovies,are,fish,0,m,TRUE,1860,22,1,5,7,3,1,67,20,36,27,33,41,low,anchovies,fish,2,anchovies_2_2,1
17,T2,1,1,15,Some ,flowers,are,hibiscuses,0,c,FALSE,2516,22,1,5,7,3,1,67,20,36,27,33,41,low,hibiscuses,flowers,24,hibiscuses_24_24,0
17,T3,1,0,16,Some ,cockroaches,are,reptiles,1,m,FALSE,1583,22,1,5,7,3,1,67,20,36,27,33,41,low,cockroaches,reptiles,9,cockroaches_9_9,1
17,T4,1,1,17,All,penguins,are,birds,0,c,FALSE,1841,22,1,5,7,3,1,67,20,36,27,33,41,low,penguins,birds,39,penguins_39_39,0
17,T5,1,0,18,All,fruits,are,watermelons,1,m,FALSE,1099,22,1,5,7,3,1,67,20,36,27,33,41,low,watermelons,fruits,55,watermelons_55_55,1
17,T6,1,0,19,All,chameleons,are,insects,1,m,FALSE,2994,22,1,5,7,3,1,67,20,36,27,33,41,low,chameleons,insects,8,chameleons_8_8,1
17,T1,1,0,21,Some ,eels,are,fish,0,m,TRUE,2801,22,1,5,7,3,1,67,20,36,27,33,41,low,eels,fish,18,eels_18_18,1
17,T2,1,1,22,Some ,flowers,are,roses,1,c,TRUE,842,22,1,5,7,3,1,67,20,36,27,33,41,low,roses,flowers,44,roses_44_44,1
17,T3,1,0,23,Some ,grasshoppers,are,reptiles,1,m,FALSE,2791,22,1,5,7,3,1,67,20,36,27,33,41,low,grasshoppers,reptiles,22,grasshoppers_22_22,1
17,T4,1,1,24,All,parrots,are,birds,1,c,TRUE,3752,22,1,5,7,3,1,67,20,36,27,33,41,low,parrots,birds,37,parrots_37_37,1
17,T5,1,0,25,All,fruits,are,papayas,1,m,FALSE,1675,22,1,5,7,3,1,67,20,36,27,33,41,low,papayas,fruits,36,papayas_36_36,1
17,T6,1,0,26,All,tortoises,are,insects,1,m,FALSE,1119,22,1,5,7,3,1,67,20,36,27,33,41,low,tortoises,insects,52,tortoises_52_52,1
17,T1,1,0,27,Some ,guppies,are,fish,0,m,TRUE,2131,22,1,5,7,3,1,67,20,36,27,33,41,low,guppies,fish,23,guppies_23_23,1
17,T2,1,1,28,Some ,flowers,are,orchids,1,c,TRUE,910,22,1,5,7,3,1,67,20,36,27,33,41,low,orchids,flowers,33,orchids_33_33,1
17,T3,1,0,29,Some ,ants,are,reptiles,1,m,FALSE,1091,22,1,5,7,3,1,67,20,36,27,33,41,low,ants,reptiles,3,ants_3_3,1
17,T4,1,1,30,All,sparrows,are,birds,1,c,TRUE,872,22,1,5,7,3,1,67,20,36,27,33,41,low,sparrows,birds,49,sparrows_49_49,1
17,T5,1,0,31,All,fruits,are,grapes,1,m,FALSE,1389,22,1,5,7,3,1,67,20,36,27,33,41,low,grapes,fruits,21,grapes_21_21,1
17,T6,1,0,32,All,lizards,are,insects,1,m,FALSE,1732,22,1,5,7,3,1,67,20,36,27,33,41,low,lizards,insects,30,lizards_30_30,1
17,T1,1,0,33,Some ,piranha,are,fish,0,m,TRUE,1127,22,1,5,7,3,1,67,20,36,27,33,41,low,piranha,fish,41,piranha_41_41,1
17,T2,1,1,34,Some ,flowers,are,jasmines,1,c,TRUE,3002,22,1,5,7,3,1,67,20,36,27,33,41,low,jasmines,flowers,26,jasmines_26_26,1
17,T3,1,0,35,Some ,caterpillars,are,reptiles,1,m,FALSE,3892,22,1,5,7,3,1,67,20,36,27,33,41,low,caterpillars,reptiles,7,caterpillars_7_7,1
17,T4,1,1,36,All,ostriches,are,birds,1,c,TRUE,3472,22,1,5,7,3,1,67,20,36,27,33,41,low,ostriches,birds,34,ostriches_34_34,1
17,T5,1,0,37,All,fruits,are,durians,1,m,FALSE,1170,22,1,5,7,3,1,67,20,36,27,33,41,low,durians,fruits,16,durians_16_16,1
17,T6,1,0,38,All,crocodiles,are,insects,1,m,FALSE,1392,22,1,5,7,3,1,67,20,36,27,33,41,low,crocodiles,insects,11,crocodiles_11_11,1
17,T1,1,0,40,Some ,stingrays,are,fish,0,m,TRUE,1038,22,1,5,7,3,1,67,20,36,27,33,41,low,stingrays,fish,50,stingrays_50_50,1
17,T2,1,1,41,Some ,flowers,are,tulips,1,c,TRUE,934,22,1,5,7,3,1,67,20,36,27,33,41,low,tulips,flowers,53,tulips_53_53,1
17,T3,1,0,42,Some ,ladybugs,are,reptiles,1,m,FALSE,719,22,1,5,7,3,1,67,20,36,27,33,41,low,ladybugs,reptiles,27,ladybugs_27_27,1
17,T4,1,1,43,All,ducks,are,birds,1,c,TRUE,1816,22,1,5,7,3,1,67,20,36,27,33,41,low,ducks,birds,15,ducks_15_15,1
17,T5,1,0,44,All,fruits,are,coconuts,1,m,FALSE,2026,22,1,5,7,3,1,67,20,36,27,33,41,low,coconuts,fruits,10,coconuts_10_10,1
17,T6,1,0,45,All,iguanas,are,insects,1,m,FALSE,3392,22,1,5,7,3,1,67,20,36,27,33,41,low,iguanas,insects,25,iguanas_25_25,1
17,T1,1,0,46,Some ,tuna,are,fish,0,m,TRUE,4467,22,1,5,7,3,1,67,20,36,27,33,41,low,tuna,fish,54,tuna_54_54,1
17,T2,1,1,47,Some ,flowers,are,daisies,1,c,TRUE,4613,22,1,5,7,3,1,67,20,36,27,33,41,low,daisies,flowers,12,daisies_12_12,1
17,T3,1,0,48,Some ,bees,are,reptiles,1,m,FALSE,1546,22,1,5,7,3,1,67,20,36,27,33,41,low,bees,reptiles,5,bees_5_5,1
17,T4,1,1,49,All,flamingoes,are,birds,1,c,TRUE,1509,22,1,5,7,3,1,67,20,36,27,33,41,low,flamingoes,birds,19,flamingoes_19_19,1
17,T5,1,0,50,All,fruits,are,bananas,1,m,FALSE,3740,22,1,5,7,3,1,67,20,36,27,33,41,low,bananas,fruits,4,bananas_4_4,1
17,T6,1,0,51,All,frogs,are,insects,1,m,FALSE,1103,22,1,5,7,3,1,67,20,36,27,33,41,low,frogs,insects,20,frogs_20_20,1
17,T1,1,0,52,Some ,sardines,are,fish,0,m,TRUE,2918,22,1,5,7,3,1,67,20,36,27,33,41,low,sardines,fish,46,sardines_46_46,1
17,T2,1,1,53,Some ,flowers,are,rafflesias,1,c,TRUE,1536,22,1,5,7,3,1,67,20,36,27,33,41,low,rafflesias,flowers,43,rafflesias_43_43,1
17,T3,1,0,54,Some ,dragonflies,are,reptiles,1,m,FALSE,2581,22,1,5,7,3,1,67,20,36,27,33,41,low,dragonflies,reptiles,14,dragonflies_14_14,1
17,T4,1,1,55,All,peacocks,are,birds,1,c,TRUE,1097,22,1,5,7,3,1,67,20,36,27,33,41,low,peacocks,birds,38,peacocks_38_38,1
17,T5,1,0,56,All,fruits,are,mangos,1,m,FALSE,2764,22,1,5,7,3,1,67,20,36,27,33,41,low,mangos,fruits,31,mangos_31_31,1
17,T6,1,0,57,All,alligators,are,insects,1,m,FALSE,1969,22,1,5,7,3,1,67,20,36,27,33,41,low,alligators,insects,1,alligators_1_1,1
18,T1,1,0,2,Some ,lavender,are,flowers,0,m,TRUE,574,22,4,5,3,4,3,67,31,27,27,25,39,low,lavender,flowers,28,lavender_28_28,1
18,T2,1,1,3,Some ,insects,are,butterflies,1,c,TRUE,793,22,4,5,3,4,3,67,31,27,27,25,39,low,butterflies,insects,6,butterflies_6_6,1
18,T3,1,0,4,Some ,eagles,are,fish,1,m,FALSE,702,22,4,5,3,4,3,67,31,27,27,25,39,low,eagles,fish,17,eagles_17_17,1
18,T4,1,1,5,All,pineapples,are,fruits,1,c,TRUE,615,22,4,5,3,4,3,67,31,27,27,25,39,low,pineapples,fruits,40,pineapples_40_40,1
18,T5,1,0,6,All,reptiles,are,snakes,1,m,FALSE,1434,22,4,5,3,4,3,67,31,27,27,25,39,low,snakes,reptiles,48,snakes_48_48,1
18,T6,1,0,7,All,sharks,are,birds,1,m,FALSE,698,22,4,5,3,4,3,67,31,27,27,25,39,low,sharks,birds,47,sharks_47_47,1
18,T1,1,0,8,Some ,lilies,are,flowers,0,m,TRUE,826,22,4,5,3,4,3,67,31,27,27,25,39,low,lilies,flowers,29,lilies_29_29,1
18,T2,1,1,9,Some ,insects,are,mosquitoes,0,c,FALSE,1781,22,4,5,3,4,3,67,31,27,27,25,39,low,mosquitoes,insects,32,mosquitoes_32_32,0
18,T3,1,0,10,Some ,owls,are,fish,1,m,FALSE,836,22,4,5,3,4,3,67,31,27,27,25,39,low,owls,fish,35,owls_35_35,1
18,T4,1,1,11,All,strawberries,are,fruits,1,c,TRUE,1014,22,4,5,3,4,3,67,31,27,27,25,39,low,strawberries,fruits,51,strawberries_51_51,1
18,T5,1,0,12,All,reptiles,are,dinosaurs,1,m,FALSE,1901,22,4,5,3,4,3,67,31,27,27,25,39,low,dinosaurs,reptiles,13,dinosaurs_13_13,1
18,T6,1,0,13,All,salmons,are,birds,1,m,FALSE,900,22,4,5,3,4,3,67,31,27,27,25,39,low,salmons,birds,45,salmons_45_45,1
18,T1,1,0,14,Some ,hibiscuses,are,flowers,0,m,TRUE,782,22,4,5,3,4,3,67,31,27,27,25,39,low,hibiscuses,flowers,24,hibiscuses_24_24,1
18,T2,1,1,15,Some ,insects,are,cockroaches,1,c,TRUE,1746,22,4,5,3,4,3,67,31,27,27,25,39,low,cockroaches,insects,9,cockroaches_9_9,1
18,T3,1,0,16,Some ,penguins,are,fish,1,m,FALSE,2480,22,4,5,3,4,3,67,31,27,27,25,39,low,penguins,fish,39,penguins_39_39,1
18,T4,1,1,17,All,watermelons,are,fruits,1,c,TRUE,2314,22,4,5,3,4,3,67,31,27,27,25,39,low,watermelons,fruits,55,watermelons_55_55,1
18,T5,1,0,18,All,reptiles,are,chameleons,1,m,FALSE,1717,22,4,5,3,4,3,67,31,27,27,25,39,low,chameleons,reptiles,8,chameleons_8_8,1
18,T6,1,0,19,All,anchovies,are,birds,0,m,TRUE,3523,22,4,5,3,4,3,67,31,27,27,25,39,low,anchovies,birds,2,anchovies_2_2,0
18,T1,1,0,21,Some ,roses,are,flowers,1,m,FALSE,2195,22,4,5,3,4,3,67,31,27,27,25,39,low,roses,flowers,44,roses_44_44,0
18,T2,1,1,22,Some ,insects,are,grasshoppers,1,c,TRUE,2442,22,4,5,3,4,3,67,31,27,27,25,39,low,grasshoppers,insects,22,grasshoppers_22_22,1
18,T3,1,0,23,Some ,parrots,are,fish,1,m,FALSE,1163,22,4,5,3,4,3,67,31,27,27,25,39,low,parrots,fish,37,parrots_37_37,1
18,T4,1,1,24,All,papayas,are,fruits,1,c,TRUE,756,22,4,5,3,4,3,67,31,27,27,25,39,low,papayas,fruits,36,papayas_36_36,1
18,T5,1,0,25,All,reptiles,are,tortoises,1,m,FALSE,2296,22,4,5,3,4,3,67,31,27,27,25,39,low,tortoises,reptiles,52,tortoises_52_52,1
18,T6,1,0,26,All,eels,are,birds,1,m,FALSE,1563,22,4,5,3,4,3,67,31,27,27,25,39,low,eels,birds,18,eels_18_18,1
18,T1,1,0,27,Some ,orchids,are,flowers,0,m,TRUE,986,22,4,5,3,4,3,67,31,27,27,25,39,low,orchids,flowers,33,orchids_33_33,1
18,T2,1,1,28,Some ,insects,are,ants,1,c,TRUE,2383,22,4,5,3,4,3,67,31,27,27,25,39,low,ants,insects,3,ants_3_3,1
18,T3,1,0,29,Some ,sparrows,are,fish,1,m,FALSE,611,22,4,5,3,4,3,67,31,27,27,25,39,low,sparrows,fish,49,sparrows_49_49,1
18,T4,1,1,30,All,grapes,are,fruits,1,c,TRUE,763,22,4,5,3,4,3,67,31,27,27,25,39,low,grapes,fruits,21,grapes_21_21,1
18,T5,1,0,31,All,reptiles,are,lizards,1,m,FALSE,2098,22,4,5,3,4,3,67,31,27,27,25,39,low,lizards,reptiles,30,lizards_30_30,1
18,T6,1,0,32,All,guppies,are,birds,1,m,FALSE,1160,22,4,5,3,4,3,67,31,27,27,25,39,low,guppies,birds,23,guppies_23_23,1
18,T1,1,0,33,Some ,jasmines,are,flowers,1,m,FALSE,2509,22,4,5,3,4,3,67,31,27,27,25,39,low,jasmines,flowers,26,jasmines_26_26,0
18,T2,1,1,34,Some ,insects,are,caterpillars,1,c,TRUE,1410,22,4,5,3,4,3,67,31,27,27,25,39,low,caterpillars,insects,7,caterpillars_7_7,1
18,T3,1,0,35,Some ,ostriches,are,fish,1,m,FALSE,2128,22,4,5,3,4,3,67,31,27,27,25,39,low,ostriches,fish,34,ostriches_34_34,1
18,T4,1,1,36,All,durians,are,fruits,1,c,TRUE,595,22,4,5,3,4,3,67,31,27,27,25,39,low,durians,fruits,16,durians_16_16,1
18,T5,1,0,37,All,reptiles,are,crocodiles,1,m,FALSE,2191,22,4,5,3,4,3,67,31,27,27,25,39,low,crocodiles,reptiles,11,crocodiles_11_11,1
18,T6,1,0,38,All,piranha,are,birds,1,m,FALSE,1783,22,4,5,3,4,3,67,31,27,27,25,39,low,piranha,birds,41,piranha_41_41,1
18,T1,1,0,40,Some ,tulips,are,flowers,0,m,TRUE,2543,22,4,5,3,4,3,67,31,27,27,25,39,low,tulips,flowers,53,tulips_53_53,1
18,T2,1,1,41,Some ,insects,are,ladybugs,1,c,TRUE,2501,22,4,5,3,4,3,67,31,27,27,25,39,low,ladybugs,insects,27,ladybugs_27_27,1
18,T3,1,0,42,Some ,ducks,are,fish,1,m,FALSE,2040,22,4,5,3,4,3,67,31,27,27,25,39,low,ducks,fish,15,ducks_15_15,1
18,T4,1,1,43,All,coconuts,are,fruits,1,c,TRUE,1485,22,4,5,3,4,3,67,31,27,27,25,39,low,coconuts,fruits,10,coconuts_10_10,1
18,T5,1,0,44,All,reptiles,are,iguanas,1,m,FALSE,5187,22,4,5,3,4,3,67,31,27,27,25,39,low,iguanas,reptiles,25,iguanas_25_25,1
18,T6,1,0,45,All,stingrays,are,birds,1,m,FALSE,817,22,4,5,3,4,3,67,31,27,27,25,39,low,stingrays,birds,50,stingrays_50_50,1
18,T1,1,0,46,Some ,daisies,are,flowers,1,m,FALSE,1358,22,4,5,3,4,3,67,31,27,27,25,39,low,daisies,flowers,12,daisies_12_12,0
18,T2,1,1,47,Some ,insects,are,bees,1,c,TRUE,3310,22,4,5,3,4,3,67,31,27,27,25,39,low,bees,insects,5,bees_5_5,1
18,T3,1,0,48,Some ,flamingoes,are,fish,1,m,FALSE,2352,22,4,5,3,4,3,67,31,27,27,25,39,low,flamingoes,fish,19,flamingoes_19_19,1
18,T4,1,1,49,All,bananas,are,fruits,1,c,TRUE,591,22,4,5,3,4,3,67,31,27,27,25,39,low,bananas,fruits,4,bananas_4_4,1
18,T5,1,0,50,All,reptiles,are,frogs,1,m,FALSE,1837,22,4,5,3,4,3,67,31,27,27,25,39,low,frogs,reptiles,20,frogs_20_20,1
18,T6,1,0,51,All,tuna,are,birds,1,m,FALSE,1688,22,4,5,3,4,3,67,31,27,27,25,39,low,tuna,birds,54,tuna_54_54,1
18,T1,1,0,52,Some ,rafflesias,are,flowers,0,m,TRUE,1145,22,4,5,3,4,3,67,31,27,27,25,39,low,rafflesias,flowers,43,rafflesias_43_43,1
18,T2,1,1,53,Some ,insects,are,dragonflies,1,c,TRUE,2370,22,4,5,3,4,3,67,31,27,27,25,39,low,dragonflies,insects,14,dragonflies_14_14,1
18,T3,1,0,54,Some ,peacocks,are,fish,1,m,FALSE,1070,22,4,5,3,4,3,67,31,27,27,25,39,low,peacocks,fish,38,peacocks_38_38,1
18,T4,1,1,55,All,mangos,are,fruits,1,c,TRUE,686,22,4,5,3,4,3,67,31,27,27,25,39,low,mangos,fruits,31,mangos_31_31,1
18,T5,1,0,56,All,reptiles,are,alligators,1,m,FALSE,1753,22,4,5,3,4,3,67,31,27,27,25,39,low,alligators,reptiles,1,alligators_1_1,1
18,T6,1,0,57,All,sardines,are,birds,1,m,FALSE,724,22,4,5,3,4,3,67,31,27,27,25,39,low,sardines,birds,46,sardines_46_46,1
19,T1,1,0,2,Some ,butterflies,are,insects,0,m,TRUE,2801,22,6,5,5,4,3,50,15,35,28,31,40,low,butterflies,insects,6,butterflies_6_6,1
19,T2,1,1,3,Some ,birds,are,eagles,1,c,TRUE,2077,22,6,5,5,4,3,50,15,35,28,31,40,low,eagles,birds,17,eagles_17_17,1
19,T3,1,0,4,Some ,pineapples,are,flowers,1,m,FALSE,1521,22,6,5,5,4,3,50,15,35,28,31,40,low,pineapples,flowers,40,pineapples_40_40,1
19,T4,1,1,5,All,snakes,are,reptiles,1,c,TRUE,1390,22,6,5,5,4,3,50,15,35,28,31,40,low,snakes,reptiles,48,snakes_48_48,1
19,T5,1,0,6,All,fish,are,sharks,1,m,FALSE,886,22,6,5,5,4,3,50,15,35,28,31,40,low,sharks,fish,47,sharks_47_47,1
19,T6,1,0,7,All,lavender,are,fruits,1,m,FALSE,1801,22,6,5,5,4,3,50,15,35,28,31,40,low,lavender,fruits,28,lavender_28_28,1
19,T1,1,0,8,Some ,mosquitoes,are,insects,1,m,FALSE,3386,22,6,5,5,4,3,50,15,35,28,31,40,low,mosquitoes,insects,32,mosquitoes_32_32,0
19,T2,1,1,9,Some ,birds,are,owls,0,c,FALSE,1966,22,6,5,5,4,3,50,15,35,28,31,40,low,owls,birds,35,owls_35_35,0
19,T3,1,0,10,Some ,strawberries,are,flowers,1,m,FALSE,2209,22,6,5,5,4,3,50,15,35,28,31,40,low,strawberries,flowers,51,strawberries_51_51,1
19,T4,1,1,11,All,dinosaurs,are,reptiles,1,c,TRUE,2448,22,6,5,5,4,3,50,15,35,28,31,40,low,dinosaurs,reptiles,13,dinosaurs_13_13,1
19,T5,1,0,12,All,fish,are,salmons,1,m,FALSE,1962,22,6,5,5,4,3,50,15,35,28,31,40,low,salmons,fish,45,salmons_45_45,1
19,T6,1,0,13,All,lilies,are,fruits,1,m,FALSE,1371,22,6,5,5,4,3,50,15,35,28,31,40,low,lilies,fruits,29,lilies_29_29,1
19,T1,1,0,14,Some ,cockroaches,are,insects,1,m,FALSE,4335,22,6,5,5,4,3,50,15,35,28,31,40,low,cockroaches,insects,9,cockroaches_9_9,0
19,T2,1,1,15,Some ,birds,are,penguins,0,c,FALSE,3182,22,6,5,5,4,3,50,15,35,28,31,40,low,penguins,birds,39,penguins_39_39,0
19,T3,1,0,16,Some ,watermelons,are,flowers,1,m,FALSE,1645,22,6,5,5,4,3,50,15,35,28,31,40,low,watermelons,flowers,55,watermelons_55_55,1
19,T4,1,1,17,All,chameleons,are,reptiles,1,c,TRUE,2812,22,6,5,5,4,3,50,15,35,28,31,40,low,chameleons,reptiles,8,chameleons_8_8,1
19,T5,1,0,18,All,fish,are,anchovies,1,m,FALSE,1731,22,6,5,5,4,3,50,15,35,28,31,40,low,anchovies,fish,2,anchovies_2_2,1
19,T6,1,0,19,All,hibiscuses,are,fruits,1,m,FALSE,1801,22,6,5,5,4,3,50,15,35,28,31,40,low,hibiscuses,fruits,24,hibiscuses_24_24,1
19,T1,1,0,21,Some ,grasshoppers,are,insects,0,m,TRUE,4264,22,6,5,5,4,3,50,15,35,28,31,40,low,grasshoppers,insects,22,grasshoppers_22_22,1
19,T2,1,1,22,Some ,birds,are,parrots,1,c,TRUE,3712,22,6,5,5,4,3,50,15,35,28,31,40,low,parrots,birds,37,parrots_37_37,1
19,T3,1,0,23,Some ,papayas,are,flowers,1,m,FALSE,951,22,6,5,5,4,3,50,15,35,28,31,40,low,papayas,flowers,36,papayas_36_36,1
19,T4,1,1,24,All,tortoises,are,reptiles,0,c,FALSE,1398,22,6,5,5,4,3,50,15,35,28,31,40,low,tortoises,reptiles,52,tortoises_52_52,0
19,T5,1,0,25,All,fish,are,eels,1,m,FALSE,1321,22,6,5,5,4,3,50,15,35,28,31,40,low,eels,fish,18,eels_18_18,1
19,T6,1,0,26,All,roses,are,fruits,1,m,FALSE,772,22,6,5,5,4,3,50,15,35,28,31,40,low,roses,fruits,44,roses_44_44,1
19,T1,1,0,27,Some ,ants,are,insects,0,m,TRUE,1790,22,6,5,5,4,3,50,15,35,28,31,40,low,ants,insects,3,ants_3_3,1
19,T2,1,1,28,Some ,birds,are,sparrows,1,c,TRUE,2773,22,6,5,5,4,3,50,15,35,28,31,40,low,sparrows,birds,49,sparrows_49_49,1
19,T3,1,0,29,Some ,grapes,are,flowers,1,m,FALSE,1043,22,6,5,5,4,3,50,15,35,28,31,40,low,grapes,flowers,21,grapes_21_21,1
19,T4,1,1,30,All,lizards,are,reptiles,0,c,FALSE,2003,22,6,5,5,4,3,50,15,35,28,31,40,low,lizards,reptiles,30,lizards_30_30,0
19,T5,1,0,31,All,fish,are,guppies,0,m,TRUE,4016,22,6,5,5,4,3,50,15,35,28,31,40,low,guppies,fish,23,guppies_23_23,0
19,T6,1,0,32,All,orchids,are,fruits,1,m,FALSE,837,22,6,5,5,4,3,50,15,35,28,31,40,low,orchids,fruits,33,orchids_33_33,1
19,T1,1,0,33,Some ,caterpillars,are,insects,0,m,TRUE,984,22,6,5,5,4,3,50,15,35,28,31,40,low,caterpillars,insects,7,caterpillars_7_7,1
19,T2,1,1,34,Some ,birds,are,ostriches,0,c,FALSE,742,22,6,5,5,4,3,50,15,35,28,31,40,low,ostriches,birds,34,ostriches_34_34,0
19,T3,1,0,35,Some ,durians,are,flowers,1,m,FALSE,1011,22,6,5,5,4,3,50,15,35,28,31,40,low,durians,flowers,16,durians_16_16,1
19,T4,1,1,36,All,crocodiles,are,reptiles,1,c,TRUE,2760,22,6,5,5,4,3,50,15,35,28,31,40,low,crocodiles,reptiles,11,crocodiles_11_11,1
19,T5,1,0,37,All,fish,are,piranha ,1,m,FALSE,879,22,6,5,5,4,3,50,15,35,28,31,40,low,piranha ,fish,41,piranha _41_41,1
19,T6,1,0,38,All,jasmines,are,fruits,1,m,FALSE,760,22,6,5,5,4,3,50,15,35,28,31,40,low,jasmines,fruits,26,jasmines_26_26,1
19,T1,1,0,40,Some ,ladybugs,are,insects,0,m,TRUE,901,22,6,5,5,4,3,50,15,35,28,31,40,low,ladybugs,insects,27,ladybugs_27_27,1
19,T2,1,1,41,Some ,birds,are,ducks,0,c,FALSE,674,22,6,5,5,4,3,50,15,35,28,31,40,low,ducks,birds,15,ducks_15_15,0
19,T3,1,0,42,Some ,coconuts,are,flowers,1,m,FALSE,628,22,6,5,5,4,3,50,15,35,28,31,40,low,coconuts,flowers,10,coconuts_10_10,1
19,T4,1,1,43,All,iguanas,are,reptiles,1,c,TRUE,827,22,6,5,5,4,3,50,15,35,28,31,40,low,iguanas,reptiles,25,iguanas_25_25,1
19,T5,1,0,44,All,fish,are,stingrays,1,m,FALSE,673,22,6,5,5,4,3,50,15,35,28,31,40,low,stingrays,fish,50,stingrays_50_50,1
19,T6,1,0,45,All,tulips,are,fruits,1,m,FALSE,708,22,6,5,5,4,3,50,15,35,28,31,40,low,tulips,fruits,53,tulips_53_53,1
19,T1,1,0,46,Some ,bees,are,insects,0,m,TRUE,997,22,6,5,5,4,3,50,15,35,28,31,40,low,bees,insects,5,bees_5_5,1
19,T2,1,1,47,Some ,birds,are,flamingoes,1,c,TRUE,1367,22,6,5,5,4,3,50,15,35,28,31,40,low,flamingoes,birds,19,flamingoes_19_19,1
19,T3,1,0,48,Some ,bananas,are,flowers,1,m,FALSE,861,22,6,5,5,4,3,50,15,35,28,31,40,low,bananas,flowers,4,bananas_4_4,1
19,T4,1,1,49,All,frogs,are,reptiles,1,c,TRUE,1611,22,6,5,5,4,3,50,15,35,28,31,40,low,frogs,reptiles,20,frogs_20_20,1
19,T5,1,0,50,All,fish,are,tuna,1,m,FALSE,627,22,6,5,5,4,3,50,15,35,28,31,40,low,tuna,fish,54,tuna_54_54,1
19,T6,1,0,51,All,daisies,are,fruits,1,m,FALSE,1161,22,6,5,5,4,3,50,15,35,28,31,40,low,daisies,fruits,12,daisies_12_12,1
19,T1,1,0,52,Some ,dragonflies,are,insects,0,m,TRUE,619,22,6,5,5,4,3,50,15,35,28,31,40,low,dragonflies,insects,14,dragonflies_14_14,1
19,T2,1,1,53,Some ,birds,are,peacocks,1,c,TRUE,1196,22,6,5,5,4,3,50,15,35,28,31,40,low,peacocks,birds,38,peacocks_38_38,1
19,T3,1,0,54,Some ,mangos,are,flowers,1,m,FALSE,620,22,6,5,5,4,3,50,15,35,28,31,40,low,mangos,flowers,31,mangos_31_31,1
19,T4,1,1,55,All,alligators,are,reptiles,1,c,TRUE,619,22,6,5,5,4,3,50,15,35,28,31,40,low,alligators,reptiles,1,alligators_1_1,1
19,T5,1,0,56,All,fish,are,sardines,1,m,FALSE,595,22,6,5,5,4,3,50,15,35,28,31,40,low,sardines,fish,46,sardines_46_46,1
19,T6,1,0,57,All,rafflesias,are,fruits,1,m,FALSE,653,22,6,5,5,4,3,50,15,35,28,31,40,low,rafflesias,fruits,43,rafflesias_43_43,1
20,T1,1,0,2,Some ,eagles,are,birds,0,m,TRUE,995,22,4,7,8,2,3,64,24,32,30,24,32,low,eagles,birds,17,eagles_17_17,1
20,T2,1,1,3,Some ,fruits,are,pineapples,1,c,TRUE,1805,22,4,7,8,2,3,64,24,32,30,24,32,low,pineapples,fruits,40,pineapples_40_40,1
20,T3,1,0,4,Some ,snakes,are,insects,1,m,FALSE,935,22,4,7,8,2,3,64,24,32,30,24,32,low,snakes,insects,48,snakes_48_48,1
20,T4,1,1,5,All,sharks,are,fish,1,c,TRUE,692,22,4,7,8,2,3,64,24,32,30,24,32,low,sharks,fish,47,sharks_47_47,1
20,T5,1,0,6,All,flowers,are,lavender,1,m,FALSE,1906,22,4,7,8,2,3,64,24,32,30,24,32,low,lavender,flowers,28,lavender_28_28,1
